Folder: Carga-Descarga (part 10)

File: Mxene1-50Ag-DESCARGA.txt
Time (s);WE(1).Potential (V);Corrected time (s);Index;WE(1).Current (A);Current range;Cutoffs
15.2528;0.532837;0;1;-0.000422821;10 mA;WE(1).Potential < -0,1 V , WE(1).Potential < -0,1 V , WE(1).Potential < -0,1 V , WE(1).Potential < -0,1 V
15.4528;0.431671;0.2;2;-0.000422424;10 mA;
15.6528;0.362915;0.4;3;-0.000421448;10 mA;
15.8528;0.31134;0.6;4;-0.000422974;10 mA;
16.0528;0.268982;0.8;5;-0.000424438;10 mA;
16.2528;0.231354;1;6;-0.000423248;10 mA;
16.4528;0.196808;1.2;7;-0.000422668;10 mA;
16.6528;0.164459;1.4;8;-0.000424255;10 mA;
16.8528;0.133728;1.6;9;-0.000424164;10 mA;
17.0528;0.104431;1.8;10;-0.000423401;10 mA;
17.2528;0.0762939;2;11;-0.000424042;10 mA;
17.4528;0.0491638;2.2;12;-0.000423279;10 mA;
17.6528;0.0231049;2.4;13;-0.000424225;10 mA;
17.8528;-0.00183411;2.6;14;-0.000421967;10 mA;
18.0528;-0.0257416;2.8;15;-0.000422211;10 mA;
18.2528;-0.048468;3;16;-0.000424713;10 mA;
18.4528;-0.0700684;3.2;17;-0.000425476;10 mA;
18.6528;-0.0903931;3.4;18;-0.000424347;10 mA;
18.8528;-0.109283;3.6;19;-0.000424438;10 mA;WE(1).Potential < -0,1 V
19.0528;-0.126465;3.8;20;-0.000424622;10 mA;WE(1).Potential < -0,1 V
19.2528;-0.141846;4;21;-0.000423676;10 mA;WE(1).Potential < -0,1 V
19.4528;-0.155121;4.2;22;-0.000425201;10 mA;WE(1).Potential < -0,1 V

File: Mxene1-100Ag-CARGA2.txt
Time (s);WE(1).Potential (V);Corrected time (s);Index;WE(1).Current (A);Current range;Cutoffs
7.0627;0.402557;0;1;0.000865479;10 mA;WE(1).Potential > 0,85 V , WE(1).Potential > 0,85 V , WE(1).Potential > 0,85 V , WE(1).Potential > 0,85 V
7.2627;0.475098;0.2;2;0.000865479;10 mA;
7.4627;0.534668;0.4;3;0.000865479;10 mA;
7.6627;0.592041;0.6;4;0.000866089;10 mA;
7.8627;0.649414;0.8;5;0.00086731;10 mA;
8.0627;0.707397;1;6;0.000867615;10 mA;
8.2627;0.765076;1.2;7;0.000866394;10 mA;
8.4627;0.822449;1.4;8;0.000867004;10 mA;
8.6627;0.879211;1.6;9;0.000867004;10 mA;WE(1).Potential > 0,85 V
8.8627;0.934143;1.8;10;0.000867615;10 mA;WE(1).Potential > 0,85 V
9.0627;0.986023;2;11;0.00086731;10 mA;WE(1).Potential > 0,85 V
9.2627;1.0321;2.2;12;0.000866699;10 mA;WE(1).Potential > 0,85 V

File: Mxene1-100Ag-CARGA.txt
Time (s);WE(1).Potential (V);Corrected time (s);Index;WE(1).Current (A);Current range;Cutoffs
10.8518;0.470978;0;1;0.000864258;10 mA;WE(1).Potential > 0,85 V , WE(1).Potential > 0,85 V , WE(1).Potential > 0,85 V , WE(1).Potential > 0,85 V
11.0518;0.57251;0.2;2;0.000864563;10 mA;
11.2518;0.667114;0.4;3;0.000865784;10 mA;
11.4518;0.754395;0.6;4;0.000868225;10 mA;
11.6518;0.830994;0.8;5;0.000869141;10 mA;
11.8518;0.899658;1;6;0.000869446;10 mA;WE(1).Potential > 0,85 V
12.0518;0.960693;1.2;7;0.00086853;10 mA;WE(1).Potential > 0,85 V
12.2518;1.01318;1.4;8;0.000865784;10 mA;WE(1).Potential > 0,85 V
12.4518;1.05621;1.6;9;0.00086853;10 mA;WE(1).Potential > 0,85 V

File: Mxene1-100Ag-DESCARGA2.txt
Time (s);WE(1).Potential (V);Corrected time (s);Index;WE(1).Current (A);Current range;Cutoffs
9.46273;0.418091;0;1;-0.000853271;10 mA;WE(1).Potential < -0,1 V , WE(1).Potential < -0,1 V , WE(1).Potential < -0,1 V , WE(1).Potential < -0,1 V
9.66273;0.288757;0.2;2;-0.000852356;10 mA;
9.86273;0.208191;0.4;3;-0.000853882;10 mA;
10.0627;0.145111;0.6;4;-0.000853577;10 mA;
10.2627;0.09021;0.8;5;-0.000853882;10 mA;
10.4627;0.0395203;1;6;-0.000853882;10 mA;
10.6627;-0.00872192;1.2;7;-0.000853882;10 mA;
10.8627;-0.0553284;1.4;8;-0.000854492;10 mA;
11.0627;-0.100311;1.6;9;-0.000855103;10 mA;WE(1).Potential < -0,1 V
11.2627;-0.143188;1.8;10;-0.000854492;10 mA;WE(1).Potential < -0,1 V
11.4627;-0.183228;2;11;-0.000854797;10 mA;WE(1).Potential < -0,1 V
11.6627;-0.219086;2.2;12;-0.000855103;10 mA;WE(1).Potential < -0,1 V

File: Mxene1-100Ag-DESCARGA.txt
Time (s);WE(1).Potential (V);Corrected time (s);Index;WE(1).Current (A);Current range;Cutoffs
12.6518;0.349731;0;1;-0.00085022;10 mA;WE(1).Potential < -0,1 V , WE(1).Potential < -0,1 V , WE(1).Potential < -0,1 V , WE(1).Potential < -0,1 V
12.8518;0.202972;0.2;2;-0.00085083;10 mA;
13.0518;0.100006;0.4;3;-0.000852661;10 mA;
13.2518;0.012088;0.6;4;-0.000853882;10 mA;
13.4518;-0.065155;0.8;5;-0.000853882;10 mA;
13.6518;-0.132385;1;6;-0.000855713;10 mA;WE(1).Potential < -0,1 V
13.8518;-0.190277;1.2;7;-0.000852661;10 mA;WE(1).Potential < -0,1 V
14.0518;-0.238342;1.4;8;-0.000855103;10 mA;WE(1).Potential < -0,1 V
14.2518;-0.275787;1.6;9;-0.000855713;10 mA;WE(1).Potential < -0,1 V