Folder: Carga-Descarga (part 9)

File: Mxene1-5Ag-DESCARGA.txt
Time (s);WE(1).Potential (V);Corrected time (s);Index;WE(1).Current (A);Current range;Cutoffs
506.608;0.812073;0;1;-3.52478e-05;10 mA;WE(1).Potential < -0,1 V , WE(1).Potential < -0,1 V , WE(1).Potential < -0,1 V , WE(1).Potential < -0,1 V
506.808;0.798645;0.2;2;-3.60107e-05;10 mA;
507.808;0.757446;1.2;7;-3.70483e-05;10 mA;
508.808;0.728455;2.2;12;-3.76282e-05;10 mA;
509.808;0.704041;3.2;17;-3.54309e-05;10 mA;
510.808;0.682068;4.2;22;-3.45764e-05;10 mA;
511.808;0.662537;5.2;27;-3.49426e-05;10 mA;
512.808;0.644531;6.2;32;-3.70789e-05;10 mA;
513.808;0.627441;7.2;37;-3.68042e-05;10 mA;
514.808;0.611572;8.2;42;-3.74451e-05;10 mA;
515.808;0.596313;9.2;47;-3.65601e-05;10 mA;
516.808;0.58197;10.2;52;-3.34167e-05;10 mA;
517.808;0.568237;11.2;57;-3.63159e-05;10 mA;
518.808;0.55542;12.2;62;-3.79639e-05;10 mA;
519.808;0.543213;13.2;67;-3.64075e-05;10 mA;
520.808;0.531311;14.2;72;-3.41187e-05;10 mA;
521.808;0.52002;15.2;77;-3.45459e-05;10 mA;
522.808;0.509338;16.2;82;-3.90625E-05;10 mA;
523.808;0.499298;17.2;87;-3.6377e-05;10 mA;
524.808;0.489502;18.2;92;-3.52173e-05;10 mA;
525.808;0.480164;19.2;97;-3.46069e-05;10 mA;
526.808;0.471222;20.2;102;-3.5553e-05;10 mA;
527.808;0.462677;21.2;107;-3.53394e-05;10 mA;
528.808;0.454437;22.2;112;-3.46985e-05;10 mA;
529.808;0.446594;23.2;117;-3.42102e-05;10 mA;
530.808;0.438965;24.2;122;-3.56445e-05;10 mA;
531.808;0.431671;25.2;127;-3.67432e-05;10 mA;
532.808;0.424652;26.2;132;-3.76587e-05;10 mA;
533.808;0.417938;27.2;137;-3.41492e-05;10 mA;
534.808;0.411438;28.2;142;-3.43628e-05;10 mA;
535.808;0.405151;29.2;147;-3.63159e-05;10 mA;
536.808;0.399109;30.2;152;-3.44543e-05;10 mA;
537.808;0.39325;31.2;157;-3.6499e-05;10 mA;
538.808;0.387573;32.2;162;-3.46069e-05;10 mA;
539.808;0.382111;33.2;167;-3.5553e-05;10 mA;
540.808;0.376801;34.2;172;-3.72009e-05;10 mA;
541.808;0.371643;35.2;177;-3.50037e-05;10 mA;
542.808;0.366638;36.2;182;-3.46985e-05;10 mA;
543.808;0.361725;37.2;187;-3.51562e-05;10 mA;
544.808;0.356964;38.2;192;-3.67126e-05;10 mA;
545.808;0.352295;39.2;197;-3.6438e-05;10 mA;
546.808;0.347778;40.2;202;-3.60718e-05;10 mA;
547.808;0.343353;41.2;207;-3.63159e-05;10 mA;
548.808;0.338989;42.2;212;-3.62549e-05;10 mA;
549.808;0.334686;43.2;217;-3.63464e-05;10 mA;
550.808;0.330414;44.2;222;-3.61023e-05;10 mA;
551.808;0.326202;45.2;227;-3.63159e-05;10 mA;
552.808;0.322052;46.2;232;-3.60413e-05;10 mA;
553.808;0.317963;47.2;237;-3.62549e-05;10 mA;
554.808;0.313873;48.2;242;-3.66516e-05;10 mA;
555.808;0.309845;49.2;247;-3.62549e-05;10 mA;
556.808;0.305847;50.2;252;-3.64685e-05;10 mA;
557.808;0.301819;51.2;257;-3.66821e-05;10 mA;
558.808;0.297821;52.2;262;-3.58887e-05;10 mA;
559.808;0.293823;53.2;267;-3.64075e-05;10 mA;
560.808;0.289795;54.2;272;-3.63464e-05;10 mA;
561.808;0.285767;55.2;277;-3.6438e-05;10 mA;
562.808;0.281738;56.2;282;-3.64075e-05;10 mA;
563.808;0.27771;57.2;287;-3.61938e-05;10 mA;
564.808;0.273712;58.2;292;-3.6499e-05;10 mA;
565.808;0.269684;59.2;297;-3.61938e-05;10 mA;
566.808;0.265686;60.2;302;-3.62549e-05;10 mA;
567.808;0.261688;61.2;307;-3.61023e-05;10 mA;
568.808;0.25769;62.2;312;-3.61633e-05;10 mA;
569.808;0.253632;63.2;317;-3.59802e-05;10 mA;
570.808;0.249634;64.2;322;-3.6438e-05;10 mA;
571.808;0.245575;65.2;327;-3.62244e-05;10 mA;
572.808;0.241547;66.2;332;-3.61328e-05;10 mA;
573.808;0.237518;67.2;337;-3.57971e-05;10 mA;
574.808;0.233551;68.2;342;-3.65906e-05;10 mA;
575.808;0.229523;69.2;347;-3.6377e-05;10 mA;
576.808;0.225464;70.2;352;-3.61633e-05;10 mA;
577.808;0.221436;71.2;357;-3.6377e-05;10 mA;
578.808;0.217438;72.2;362;-3.61023e-05;10 mA;
579.808;0.213531;73.2;367;-3.65295e-05;10 mA;
580.808;0.209656;74.2;372;-3.59497e-05;10 mA;
581.808;0.205719;75.2;377;-3.61633e-05;10 mA;
582.808;0.201752;76.2;382;-3.66211e-05;10 mA;
583.808;0.197754;77.2;387;-3.61633e-05;10 mA;
584.808;0.193756;78.2;392;-3.65295e-05;10 mA;
585.808;0.189697;79.2;397;-3.63159e-05;10 mA;
586.808;0.18573;80.2;402;-3.62549e-05;10 mA;
587.808;0.181763;81.2;407;-3.64685e-05;10 mA;
588.808;0.177734;82.2;412;-3.6499e-05;10 mA;
589.808;0.173676;83.2;417;-3.64075e-05;10 mA;
590.808;0.169647;84.2;422;-3.61023e-05;10 mA;
591.808;0.165558;85.2;427;-3.64685e-05;10 mA;
592.808;0.161438;86.2;432;-3.62244e-05;10 mA;
593.808;0.157379;87.2;437;-3.6438e-05;10 mA;
594.808;0.153351;88.2;442;-3.67126e-05;10 mA;
595.808;0.149292;89.2;447;-3.6499e-05;10 mA;
596.808;0.145203;90.2;452;-3.67126e-05;10 mA;
597.808;0.141205;91.2;457;-3.64075e-05;10 mA;
598.808;0.137177;92.2;462;-3.61633e-05;10 mA;
599.808;0.133148;93.2;467;-3.6377e-05;10 mA;
600.808;0.129181;94.2;472;-3.6377e-05;10 mA;
601.808;0.125183;95.2;477;-3.63159e-05;10 mA;
602.808;0.121246;96.2;482;-3.63464e-05;10 mA;
603.808;0.11731;97.2;487;-3.63159e-05;10 mA;
604.808;0.113373;98.2;492;-3.66211e-05;10 mA;
605.808;0.109528;99.2;497;-3.64685e-05;10 mA;
606.808;0.105682;100.2;502;-3.66211e-05;10 mA;
607.808;0.101868;101.2;507;-3.6438e-05;10 mA;
608.808;0.098053;102.2;512;-3.64075e-05;10 mA;
609.808;0.0943298;103.2;517;-3.60718e-05;10 mA;
610.808;0.0906067;104.2;522;-3.6499e-05;10 mA;
611.808;0.0870056;105.2;527;-3.6499e-05;10 mA;
612.808;0.0834045;106.2;532;-3.62244e-05;10 mA;
613.808;0.0797729;107.2;537;-3.60718e-05;10 mA;
614.808;0.0761719;108.2;542;-3.60718e-05;10 mA;
615.808;0.0726318;109.2;547;-3.63464e-05;10 mA;
616.808;0.0691528;110.2;552;-3.62549e-05;10 mA;
617.808;0.0656738;111.2;557;-3.65295e-05;10 mA;
618.808;0.0622559;112.2;562;-3.66516e-05;10 mA;
619.808;0.0588379;113.2;567;-3.6499e-05;10 mA;
620.808;0.055481;114.2;572;-3.62244e-05;10 mA;
621.808;0.0520935;115.2;577;-3.62244e-05;10 mA;
622.808;0.0487061;116.2;582;-3.62549e-05;10 mA;
623.808;0.0454834;117.2;587;-3.6377e-05;10 mA;
624.808;0.0422546;118.2;592;-3.64685e-05;10 mA;
625.808;0.0390808;119.2;597;-3.65295e-05;10 mA;
626.808;0.0359528;120.2;602;-3.64685e-05;10 mA;
627.808;0.0328796;121.2;607;-3.6438e-05;10 mA;
628.808;0.0298004;122.2;612;-3.67432e-05;10 mA;
629.808;0.0267151;123.2;617;-3.67126e-05;10 mA;
630.808;0.0237122;124.2;622;-3.65601e-05;10 mA;
631.808;0.020755;125.2;627;-3.6377e-05;10 mA;
632.808;0.0178345;126.2;632;-3.64685e-05;10 mA;
633.808;0.0148987;127.2;637;-3.63159e-05;10 mA;
634.808;0.0120789;128.2;642;-3.6438e-05;10 mA;
635.808;0.00918884;129.2;647;-3.64075e-05;10 mA;
636.808;0.00639038;130.2;652;-3.6377e-05;10 mA;
637.808;0.00364075;131.2;657;-3.64075e-05;10 mA;
638.808;0.000918579;132.2;662;-3.61938e-05;10 mA;
639.808;-0.00176697;133.2;667;-3.66516e-05;10 mA;
640.808;-0.00441589;134.2;672;-3.65601e-05;10 mA;
641.808;-0.00699463;135.2;677;-3.64685e-05;10 mA;
642.808;-0.00953674;136.2;682;-3.65906e-05;10 mA;
643.808;-0.0120605;137.2;687;-3.66211e-05;10 mA;
644.808;-0.0145966;138.2;692;-3.6499e-05;10 mA;
645.808;-0.017038;139.2;697;-3.61938e-05;10 mA;
646.808;-0.0194336;140.2;702;-3.64075e-05;10 mA;
647.808;-0.0218414;141.2;707;-3.69263e-05;10 mA;
648.808;-0.0241943;142.2;712;-3.64685e-05;10 mA;
649.808;-0.0265289;143.2;717;-3.61023e-05;10 mA;
650.808;-0.0288635;144.2;722;-3.6438e-05;10 mA;
651.808;-0.0310944;145.2;727;-3.65295e-05;10 mA;
652.808;-0.0332764;146.2;732;-3.63464e-05;10 mA;
653.808;-0.0354187;147.2;737;-3.6438e-05;10 mA;
654.808;-0.037558;148.2;742;-3.64685e-05;10 mA;
655.808;-0.0396179;149.2;747;-3.62854e-05;10 mA;
656.808;-0.0415863;150.2;752;-3.64075e-05;10 mA;
657.808;-0.043512;151.2;757;-3.62549e-05;10 mA;
658.808;-0.0454346;152.2;762;-3.68958e-05;10 mA;
659.808;-0.0473145;153.2;767;-3.67126e-05;10 mA;
660.808;-0.0492065;154.2;772;-3.65295e-05;10 mA;
661.808;-0.0510254;155.2;777;-3.61328e-05;10 mA;
662.808;-0.0528259;156.2;782;-3.67126e-05;10 mA;
663.808;-0.0545654;157.2;787;-3.66821e-05;10 mA;
664.808;-0.0562744;158.2;792;-3.64685e-05;10 mA;
665.808;-0.0579834;159.2;797;-3.65906e-05;10 mA;
666.808;-0.0595703;160.2;802;-3.64075e-05;10 mA;
667.808;-0.0611877;161.2;807;-3.62854e-05;10 mA;
668.808;-0.0627441;162.2;812;-3.64685e-05;10 mA;
669.808;-0.064209;163.2;817;-3.6438e-05;10 mA;
670.808;-0.0657043;164.2;822;-3.6438e-05;10 mA;
671.808;-0.0672302;165.2;827;-3.66211e-05;10 mA;
672.808;-0.068634;166.2;832;-3.66516e-05;10 mA;
673.808;-0.0700989;167.2;837;-3.6499e-05;10 mA;
674.808;-0.0714417;168.2;842;-3.69263e-05;10 mA;
675.808;-0.0727539;169.2;847;-3.68042e-05;10 mA;
676.808;-0.0740967;170.2;852;-3.63159e-05;10 mA;
677.808;-0.0753479;171.2;857;-3.66821e-05;10 mA;
678.808;-0.0766602;172.2;862;-3.67126e-05;10 mA;
679.808;-0.0778503;173.2;867;-3.68652e-05;10 mA;
680.808;-0.0790405;174.2;872;-3.66516e-05;10 mA;
681.808;-0.0802307;175.2;877;-3.66516e-05;10 mA;
682.808;-0.0814209;176.2;882;-3.65295e-05;10 mA;
683.808;-0.0826416;177.2;887;-3.66516e-05;10 mA;
684.808;-0.0837402;178.2;892;-3.6499e-05;10 mA;
685.808;-0.0848999;179.2;897;-3.63464e-05;10 mA;
686.808;-0.085968;180.2;902;-3.67432e-05;10 mA;
687.808;-0.0869751;181.2;907;-3.63159e-05;10 mA;
688.808;-0.0880432;182.2;912;-3.6499e-05;10 mA;
689.808;-0.0890808;183.2;917;-3.6499e-05;10 mA;
690.808;-0.0900574;184.2;922;-3.64075e-05;10 mA;
691.808;-0.0910645;185.2;927;-3.6499e-05;10 mA;
692.808;-0.0920715;186.2;932;-3.65906e-05;10 mA;
693.808;-0.0930481;187.2;937;-3.62244e-05;10 mA;
694.808;-0.0939331;188.2;942;-3.6499e-05;10 mA;
695.808;-0.0948792;189.2;947;-3.6377e-05;10 mA;
696.808;-0.0957947;190.2;952;-3.6438e-05;10 mA;
697.808;-0.0967102;191.2;957;-3.65906e-05;10 mA;
698.808;-0.0975952;192.2;962;-3.69873e-05;10 mA;
699.808;-0.0983887;193.2;967;-3.63159e-05;10 mA;
700.808;-0.0991821;194.2;972;-3.65906e-05;10 mA;
701.808;-0.0999146;195.2;977;-3.6499e-05;10 mA;
702.608;-0.100525;196;981;-3.65906e-05;10 mA;WE(1).Potential < -0,1 V

File: Mxene1-10Ag-CARGA.txt
Time (s);WE(1).Potential (V);Corrected time (s);Index;WE(1).Current (A);Current range;Cutoffs
120.13;0.0160095;0;1;8.97522e-05;10 mA;WE(1).Potential > 0,85 V , WE(1).Potential > 0,85 V , WE(1).Potential > 0,85 V , WE(1).Potential > 0,85 V
120.33;0.0328552;0.2;2;9.15222e-05;10 mA;
120.73;0.0592957;0.6;4;8.98743e-05;10 mA;
121.13;0.080719;1;6;9.42078e-05;10 mA;
121.53;0.0992126;1.4;8;9.16443e-05;10 mA;
121.93;0.115631;1.8;10;9.23767e-05;10 mA;
122.33;0.130463;2.2;12;8.99048e-05;10 mA;
122.73;0.144073;2.6;14;8.95691e-05;10 mA;
123.13;0.156708;3;16;9.44824e-05;10 mA;
123.53;0.168549;3.4;18;9.25598e-05;10 mA;
123.93;0.179657;3.8;20;8.99353e-05;10 mA;
124.33;0.190247;4.2;22;9.1217e-05;10 mA;
124.73;0.200256;4.6;24;8.98743e-05;10 mA;
125.13;0.209808;5;26;9.46045e-05;10 mA;
125.53;0.218994;5.4;28;9.18274e-05;10 mA;
125.93;0.227844;5.8;30;9.14917e-05;10 mA;
126.33;0.236328;6.2;32;9.33838e-05;10 mA;
126.73;0.244598;6.6;34;9.33533e-05;10 mA;
127.13;0.252594;7;36;9.33838e-05;10 mA;
127.53;0.260376;7.4;38;9.09119e-05;10 mA;
127.93;0.267975;7.8;40;9.18884e-05;10 mA;
128.33;0.275421;8.2;42;9.06677e-05;10 mA;
128.73;0.282654;8.6;44;9.1156e-05;10 mA;
129.13;0.289703;9;46;9.30176e-05;10 mA;
129.53;0.29657;9.4;48;9.27124e-05;10 mA;
129.93;0.303314;9.8;50;9.21631e-05;10 mA;
130.33;0.309906;10.2;52;9.02405e-05;10 mA;
130.73;0.316345;10.6;54;9.375e-05;10 mA;
131.13;0.322662;11;56;9.17358e-05;10 mA;
131.53;0.328796;11.4;58;9.0332e-05;10 mA;
131.93;0.334778;11.8;60;9.36584e-05;10 mA;
132.33;0.340729;12.2;62;9.0271e-05;10 mA;
132.73;0.346527;12.6;64;9.14001e-05;10 mA;
133.13;0.352264;13;66;9.04236e-05;10 mA;
133.53;0.35791;13.4;68;9.37195e-05;10 mA;
133.93;0.363495;13.8;70;9.2041e-05;10 mA;
134.33;0.368958;14.2;72;9.07593e-05;10 mA;
134.73;0.374359;14.6;74;9.03625e-05;10 mA;
135.13;0.37973;15;76;9.40247e-05;10 mA;
135.53;0.38504;15.4;78;9.15833e-05;10 mA;
135.93;0.390289;15.8;80;9.16443e-05;10 mA;
136.33;0.395538;16.2;82;9.0271e-05;10 mA;
136.73;0.400757;16.6;84;9.22852e-05;10 mA;
137.13;0.406036;17;86;9.2041e-05;10 mA;
137.53;0.411255;17.4;88;9.30481e-05;10 mA;
137.93;0.416443;17.8;90;9.06067e-05;10 mA;
138.33;0.421692;18.2;92;9.05762e-05;10 mA;
138.73;0.426941;18.6;94;9.10339e-05;10 mA;
139.13;0.432159;19;96;9.26819e-05;10 mA;
139.53;0.437439;19.4;98;9.32617e-05;10 mA;
139.93;0.442719;19.8;100;9.15833e-05;10 mA;
140.33;0.448029;20.2;102;9.35669e-05;10 mA;
140.73;0.453308;20.6;104;9.25903e-05;10 mA;
141.13;0.458649;21;106;9.19189e-05;10 mA;
141.53;0.463989;21.4;108;9.08203e-05;10 mA;
141.93;0.469391;21.8;110;9.08203e-05;10 mA;
142.33;0.474731;22.2;112;9.1156e-05;10 mA;
142.73;0.480133;22.6;114;9.37805e-05;10 mA;
143.13;0.485535;23;116;9.35059e-05;10 mA;
143.53;0.490967;23.4;118;9.2041e-05;10 mA;
143.93;0.496368;23.8;120;9.23767e-05;10 mA;
144.33;0.501709;24.2;122;9.10034e-05;10 mA;
144.73;0.506897;24.6;124;9.36279e-05;10 mA;
145.13;0.51239;25;126;9.21936e-05;10 mA;
145.53;0.517578;25.4;128;9.37805e-05;10 mA;
145.93;0.523071;25.8;130;9.22241e-05;10 mA;
146.33;0.528564;26.2;132;9.21936e-05;10 mA;
146.73;0.534058;26.6;134;9.09424e-05;10 mA;
147.13;0.539246;27;136;9.10034e-05;10 mA;
147.53;0.544434;27.4;138;9.0332e-05;10 mA;
147.93;0.549927;27.8;140;9.1217e-05;10 mA;
148.33;0.555115;28.2;142;9.37195e-05;10 mA;
148.73;0.560303;28.6;144;9.2804e-05;10 mA;
149.13;0.565491;29;146;9.34753e-05;10 mA;
149.53;0.570679;29.4;148;9.12781e-05;10 mA;
149.93;0.575867;29.8;150;9.41467e-05;10 mA;
150.33;0.581055;30.2;152;9.08203e-05;10 mA;
150.73;0.586243;30.6;154;9.34448e-05;10 mA;
151.13;0.591431;31;156;9.14612e-05;10 mA;
151.53;0.596619;31.4;158;9.06677e-05;10 mA;
151.93;0.601807;31.8;160;9.42383e-05;10 mA;
152.33;0.606995;32.2;162;9.06677e-05;10 mA;
152.73;0.612183;32.6;164;9.03931e-05;10 mA;
153.13;0.617065;33;166;9.20715e-05;10 mA;
153.53;0.622253;33.4;168;9.13696e-05;10 mA;
153.93;0.627136;33.8;170;9.17358e-05;10 mA;
154.33;0.632324;34.2;172;9.39026e-05;10 mA;
154.73;0.637207;34.6;174;9.13086e-05;10 mA;
155.13;0.64209;35;176;9.52759e-05;10 mA;
155.53;0.646973;35.4;178;9.375e-05;10 mA;
155.93;0.651855;35.8;180;9.11865e-05;10 mA;
156.33;0.656738;36.2;182;9.15222e-05;10 mA;
156.73;0.661621;36.6;184;9.18884e-05;10 mA;
157.13;0.666504;37;186;9.54285e-05;10 mA;
157.53;0.671082;37.4;188;9.06067e-05;10 mA;
157.93;0.675659;37.8;190;9.00269e-05;10 mA;
158.33;0.680237;38.2;192;9.27124e-05;10 mA;
158.73;0.684814;38.6;194;9.16443e-05;10 mA;
159.13;0.689392;39;196;9.06372e-05;10 mA;
159.53;0.69397;39.4;198;9.21326e-05;10 mA;
159.93;0.698547;39.8;200;9.30481e-05;10 mA;
160.33;0.70343;40.2;202;9.22546e-05;10 mA;
160.73;0.708008;40.6;204;9.03931e-05;10 mA;
161.13;0.71228;41;206;9.42383e-05;10 mA;
161.53;0.716553;41.4;208;9.375e-05;10 mA;
161.93;0.72113;41.8;210;9.21326e-05;10 mA;
162.33;0.725403;42.2;212;9.3811e-05;10 mA;
162.73;0.72998;42.6;214;9.2041e-05;10 mA;
163.13;0.734253;43;216;9.10645e-05;10 mA;
163.53;0.73822;43.4;218;9.35974e-05;10 mA;
163.93;0.742493;43.8;220;9.28345e-05;10 mA;
164.33;0.746765;44.2;222;9.09119e-05;10 mA;
164.73;0.750732;44.6;224;9.33228e-05;10 mA;
165.13;0.7547;45;226;9.08203e-05;10 mA;
165.53;0.758667;45.4;228;9.25903e-05;10 mA;
165.93;0.762634;45.8;230;9.39636e-05;10 mA;
166.33;0.766602;46.2;232;9.13696e-05;10 mA;
166.73;0.770569;46.6;234;9.23462e-05;10 mA;
167.13;0.774536;47;236;9.39331e-05;10 mA;
167.53;0.778503;47.4;238;9.34448e-05;10 mA;
167.93;0.782166;47.8;240;9.31702e-05;10 mA;
168.33;0.785828;48.2;242;9.36584e-05;10 mA;
168.73;0.789795;48.6;244;9.2041e-05;10 mA;
169.13;0.793152;49;246;9.24683e-05;10 mA;
169.53;0.796814;49.4;248;9.39941e-05;10 mA;
169.93;0.800476;49.8;250;9.17969e-05;10 mA;
170.33;0.803833;50.2;252;9.30176e-05;10 mA;
170.73;0.80719;50.6;254;9.41772e-05;10 mA;
171.13;0.810547;51;256;9.26819e-05;10 mA;
171.53;0.813904;51.4;258;9.26514e-05;10 mA;
171.93;0.816956;51.8;260;9.08508e-05;10 mA;
172.33;0.8203125;52.2;262;9.32922e-05;10 mA;
172.73;0.823364;52.6;264;9.27124e-05;10 mA;
173.13;0.826721;53;266;9.26514e-05;10 mA;
173.53;0.829773;53.4;268;9.0332e-05;10 mA;
173.93;0.83252;53.8;270;9.30481e-05;10 mA;
174.33;0.835571;54.2;272;9.18884e-05;10 mA;
174.73;0.838623;54.6;274;8.99658e-05;10 mA;
175.13;0.84137;55;276;9.3689e-05;10 mA;
175.53;0.844116;55.4;278;9.41467e-05;10 mA;
175.93;0.847168;55.8;280;9.37195e-05;10 mA;
176.33;0.849609;56.2;282;9.24377e-05;10 mA;
176.73;0.852356;56.6;284;9.3689e-05;10 mA;WE(1).Potential > 0,85 V
177.13;0.854797;57;286;9.35669e-05;10 mA;WE(1).Potential > 0,85 V

File: Mxene1-10Ag-DESCARGA.txt
Time (s);WE(1).Potential (V);Corrected time (s);Index;WE(1).Current (A);Current range;Cutoffs
177.33;0.771179;0;1;-7.92847e-05;10 mA;WE(1).Potential < -0,1 V , WE(1).Potential < -0,1 V , WE(1).Potential < -0,1 V , WE(1).Potential < -0,1 V
177.53;0.743713;0.2;2;-7.83386e-05;10 mA;
177.93;0.704041;0.6;4;-7.72095e-05;10 mA;
178.33;0.673828;1;6;-7.73621e-05;10 mA;
178.73;0.648499;1.4;8;-7.96509e-05;10 mA;
179.13;0.626221;1.8;10;-7.65991e-05;10 mA;
179.53;0.606384;2.2;12;-7.8186e-05;10 mA;
179.93;0.588074;2.6;14;-7.66296e-05;10 mA;
180.33;0.570984;3;16;-7.88574e-05;10 mA;
180.73;0.555115;3.4;18;-7.83691e-05;10 mA;
181.13;0.540161;3.8;20;-7.91626e-05;10 mA;
181.53;0.525818;4.2;22;-7.78198e-05;10 mA;
181.93;0.51239;4.6;24;-7.90405e-05;10 mA;
182.33;0.499573;5;26;-7.85828e-05;10 mA;
182.73;0.487396;5.4;28;-7.60803e-05;10 mA;
183.13;0.4758;5.8;30;-7.65686e-05;10 mA;
183.53;0.46463;6.2;32;-7.70874e-05;10 mA;
183.93;0.453979;6.6;34;-8.00781e-05;10 mA;
184.33;0.443878;7;36;-7.85217e-05;10 mA;
184.73;0.434174;7.4;38;-7.69958e-05;10 mA;
185.13;0.424927;7.8;40;-7.91931e-05;10 mA;
185.53;0.416107;8.2;42;-7.85828e-05;10 mA;
185.93;0.407715;8.6;44;-7.80334e-05;10 mA;
186.33;0.399658;9;46;-7.85522e-05;10 mA;
186.73;0.391937;9.4;48;-7.62024e-05;10 mA;
187.13;0.384491;9.8;50;-7.81555e-05;10 mA;
187.53;0.37735;10.2;52;-7.87048e-05;10 mA;
187.93;0.370453;10.6;54;-7.96814e-05;10 mA;
188.33;0.36377;11;56;-7.6416e-05;10 mA;
188.73;0.35733;11.4;58;-7.68433e-05;10 mA;
189.13;0.351074;11.8;60;-7.89795e-05;10 mA;
189.53;0.344971;12.2;62;-8.02612e-05;10 mA;
189.93;0.338959;12.6;64;-8.01392e-05;10 mA;
190.33;0.33313;13;66;-7.93152e-05;10 mA;
190.73;0.327423;13.4;68;-7.96814e-05;10 mA;
191.13;0.321808;13.8;70;-7.70874e-05;10 mA;
191.53;0.316284;14.2;72;-7.96814e-05;10 mA;
191.93;0.310852;14.6;74;-7.9834e-05;10 mA;
192.33;0.305511;15;76;-7.94983e-05;10 mA;
192.73;0.300171;15.4;78;-7.83386e-05;10 mA;
193.13;0.294983;15.8;80;-8.03528e-05;10 mA;
193.53;0.289825;16.2;82;-7.82471e-05;10 mA;
193.93;0.284668;16.6;84;-8.06274e-05;10 mA;
194.33;0.279602;17;86;-7.97424e-05;10 mA;
194.73;0.274567;17.4;88;-7.96509e-05;10 mA;
195.13;0.269501;17.8;90;-8.06885e-05;10 mA;
195.53;0.264526;18.2;92;-8.10852e-05;10 mA;
195.93;0.259552;18.6;94;-8.08716e-05;10 mA;
196.33;0.254639;19;96;-7.98035e-05;10 mA;
196.73;0.249664;19.4;98;-8.05054e-05;10 mA;
197.13;0.244781;19.8;100;-8.08105e-05;10 mA;
197.53;0.239929;20.2;102;-7.86438e-05;10 mA;
197.93;0.235077;20.6;104;-8.01697e-05;10 mA;
198.33;0.230255;21;106;-7.94983e-05;10 mA;
198.73;0.225433;21.4;108;-7.82166e-05;10 mA;
199.13;0.220612;21.8;110;-7.71179e-05;10 mA;
199.53;0.215881;22.2;112;-7.97424e-05;10 mA;
199.93;0.21109;22.6;114;-7.91626e-05;10 mA;
200.33;0.206329;23;116;-7.86743e-05;10 mA;
200.73;0.20163;23.4;118;-7.90405e-05;10 mA;
201.13;0.19693;23.8;120;-8.05969e-05;10 mA;
201.53;0.19223;24.2;122;-8.08105e-05;10 mA;
201.93;0.187531;24.6;124;-7.9895e-05;10 mA;
202.33;0.182892;25;126;-7.87048e-05;10 mA;
202.73;0.178253;25.4;128;-7.95288e-05;10 mA;
203.13;0.173584;25.8;130;-7.94983e-05;10 mA;
203.53;0.169006;26.2;132;-7.91626e-05;10 mA;
203.93;0.164368;26.6;134;-7.86133e-05;10 mA;
204.33;0.15976;27;136;-7.91626e-05;10 mA;
204.73;0.155182;27.4;138;-8.11768e-05;10 mA;
205.13;0.150574;27.8;140;-7.95593e-05;10 mA;
205.53;0.145996;28.2;142;-8.14514e-05;10 mA;
205.93;0.141449;28.6;144;-8.05359e-05;10 mA;
206.33;0.136902;29;146;-7.94373e-05;10 mA;
206.73;0.132324;29.4;148;-8.12378e-05;10 mA;
207.13;0.127808;29.8;150;-8.03223e-05;10 mA;
207.53;0.123322;30.2;152;-7.92847e-05;10 mA;
207.93;0.118835;30.6;154;-7.83997e-05;10 mA;
208.33;0.11438;31;156;-7.75757e-05;10 mA;
208.73;0.109924;31.4;158;-7.76367e-05;10 mA;
209.13;0.105469;31.8;160;-7.87048e-05;10 mA;
209.53;0.101074;32.2;162;-7.82166e-05;10 mA;
209.93;0.0967407;32.6;164;-8.02002e-05;10 mA;
210.33;0.0924377;33;166;-7.77588e-05;10 mA;
210.73;0.0881348;33.4;168;-7.88574e-05;10 mA;
211.13;0.0838318;33.8;170;-7.97729e-05;10 mA;
211.53;0.0795593;34.2;172;-7.85828e-05;10 mA;
211.93;0.0754089;34.6;174;-8.03833e-05;10 mA;
212.33;0.0711975;35;176;-7.8949e-05;10 mA;
212.73;0.0671082;35.4;178;-7.86743e-05;10 mA;
213.13;0.0630188;35.8;180;-7.98035e-05;10 mA;
213.53;0.0589905;36.2;182;-7.92236e-05;10 mA;
213.93;0.0549622;36.6;184;-7.94067e-05;10 mA;
214.33;0.0509644;37;186;-7.82471e-05;10 mA;
214.73;0.0469604;37.4;188;-7.85828e-05;10 mA;
215.13;0.0430542;37.8;190;-7.87354e-05;10 mA;
215.53;0.0392365;38.2;192;-7.8949e-05;10 mA;
215.93;0.0355286;38.6;194;-7.77588e-05;10 mA;
216.33;0.0317841;39;196;-7.94678e-05;10 mA;
216.73;0.0281006;39.4;198;-7.99561e-05;10 mA;
217.13;0.0244568;39.8;200;-8.13904e-05;10 mA;
217.53;0.0208557;40.2;202;-7.83997e-05;10 mA;
217.93;0.0173157;40.6;204;-7.89795e-05;10 mA;
218.33;0.0138336;41;206;-7.75452e-05;10 mA;
218.73;0.0103912;41.4;208;-7.80029e-05;10 mA;
219.13;0.00700989;41.8;210;-8.13904e-05;10 mA;
219.53;0.00370789;42.2;212;-7.95593e-05;10 mA;
219.93;0.000390625;42.6;214;-7.8125E-05;10 mA;
220.33;-0.00286865;43;216;-7.74536e-05;10 mA;
220.73;-0.00608215;43.4;218;-7.65076e-05;10 mA;
221.13;-0.00921936;43.8;220;-7.83691e-05;10 mA;
221.53;-0.0122253;44.2;222;-7.99561e-05;10 mA;
221.93;-0.0152435;44.6;224;-8.13904e-05;10 mA;
222.33;-0.018222;45;226;-7.85217e-05;10 mA;
222.73;-0.021109;45.4;228;-7.7179e-05;10 mA;
223.13;-0.0240051;45.8;230;-8.00781e-05;10 mA;
223.53;-0.0267975;46.2;232;-7.88574e-05;10 mA;
223.93;-0.0295349;46.6;234;-8.05054e-05;10 mA;
224.33;-0.0322449;47;236;-8.10547e-05;10 mA;
224.73;-0.0348816;47.4;238;-7.83997e-05;10 mA;
225.13;-0.0375061;47.8;240;-7.83997e-05;10 mA;
225.53;-0.0400055;48.2;242;-8.10242e-05;10 mA;
225.93;-0.0425049;48.6;244;-7.95898e-05;10 mA;
226.33;-0.044989;49;246;-8.09937e-05;10 mA;
226.73;-0.0473846;49.4;248;-7.76978e-05;10 mA;
227.13;-0.0497498;49.8;250;-8.05969e-05;10 mA;
227.53;-0.052063;50.2;252;-7.9834e-05;10 mA;
227.93;-0.0542297;50.6;254;-8.0658e-05;10 mA;
228.33;-0.056366;51;256;-7.85522e-05;10 mA;
228.73;-0.0585022;51.4;258;-7.84912e-05;10 mA;
229.13;-0.0605469;51.8;260;-8.12683e-05;10 mA;
229.53;-0.062561;52.2;262;-8.03528e-05;10 mA;
229.93;-0.0644836;52.6;264;-8.13904e-05;10 mA;
230.33;-0.0663757;53;266;-7.85522e-05;10 mA;
230.73;-0.0682068;53.4;268;-7.95898e-05;10 mA;
231.13;-0.0699768;53.8;270;-8.08105e-05;10 mA;
231.53;-0.0717163;54.2;272;-8.02917e-05;10 mA;
231.93;-0.0734558;54.6;274;-7.76062e-05;10 mA;
232.33;-0.0751343;55;276;-8.00781e-05;10 mA;
232.73;-0.0767212;55.4;278;-8.02002e-05;10 mA;
233.13;-0.0783386;55.8;280;-7.83386e-05;10 mA;
233.53;-0.0798645;56.2;282;-8.03223e-05;10 mA;
233.93;-0.0812988;56.6;284;-7.93457e-05;10 mA;
234.33;-0.0827332;57;286;-7.76367e-05;10 mA;
234.73;-0.0841675;57.4;288;-7.91016e-05;10 mA;
235.13;-0.0855408;57.8;290;-7.8125E-05;10 mA;
235.53;-0.0868835;58.2;292;-7.98645e-05;10 mA;
235.93;-0.0882263;58.6;294;-7.97119e-05;10 mA;
236.33;-0.0895081;59;296;-7.76062e-05;10 mA;
236.73;-0.0907898;59.4;298;-8.09021e-05;10 mA;
237.13;-0.092041;59.8;300;-7.76978e-05;10 mA;
237.53;-0.0932617;60.2;302;-7.96814e-05;10 mA;
237.93;-0.0944519;60.6;304;-7.8125E-05;10 mA;
238.33;-0.0955811;61;306;-7.95898e-05;10 mA;
238.73;-0.0967102;61.4;308;-7.75757e-05;10 mA;
239.13;-0.0978394;61.8;310;-7.98035e-05;10 mA;
239.53;-0.098877;62.2;312;-7.85217e-05;10 mA;
239.93;-0.099884;62.6;314;-7.86743e-05;10 mA;
240.13;-0.100372;62.8;315;-7.73621e-05;10 mA;WE(1).Potential < -0,1 V
240.33;-0.100891;63;316;-8.05664e-05;10 mA;WE(1).Potential < -0,1 V
240.53;-0.101349;63.2;317;-7.80334e-05;10 mA;WE(1).Potential < -0,1 V
240.73;-0.101868;63.4;318;-7.91626e-05;10 mA;WE(1).Potential < -0,1 V

File: Mxene1-50Ag-CARGA.txt
Time (s);WE(1).Potential (V);Corrected time (s);Index;WE(1).Current (A);Current range;Cutoffs
10.8528;0.276947;0;1;0.000434418;10 mA;WE(1).Potential > 0,85 V , WE(1).Potential > 0,85 V , WE(1).Potential > 0,85 V , WE(1).Potential > 0,85 V
11.0528;0.334442;0.2;2;0.000436615;10 mA;
11.2528;0.379272;0.4;3;0.000436371;10 mA;
11.4528;0.416962;0.6;4;0.000434723;10 mA;
11.6528;0.450714;0.8;5;0.000436462;10 mA;
11.8528;0.48291;1;6;0.000436981;10 mA;
12.0528;0.514832;1.2;7;0.000435486;10 mA;
12.2528;0.546875;1.4;8;0.000436188;10 mA;
12.4528;0.578918;1.6;9;0.000437927;10 mA;
12.6528;0.610962;1.8;10;0.000438202;10 mA;
12.8528;0.642395;2;11;0.000438477;10 mA;
13.0528;0.672913;2.2;12;0.000438171;10 mA;
13.2528;0.70282;2.4;13;0.000435394;10 mA;
13.4528;0.731201;2.6;14;0.000437225;10 mA;
13.6528;0.758972;2.8;15;0.000435333;10 mA;
13.8528;0.784912;3;16;0.000437134;10 mA;
14.0528;0.809937;3.2;17;0.000435425;10 mA;
14.2528;0.83374;3.4;18;0.000437012;10 mA;
14.4528;0.856323;3.6;19;0.000435364;10 mA;WE(1).Potential > 0,85 V
14.6528;0.87738;3.8;20;0.000437653;10 mA;WE(1).Potential > 0,85 V
14.8528;0.896301;4;21;0.000436157;10 mA;WE(1).Potential > 0,85 V
15.0528;0.913696;4.2;22;0.000438019;10 mA;WE(1).Potential > 0,85 V