Folder: Carga-Descarga (part 4)

File: CDMXene2-1Ag-1CARGA.txt
Time (s);WE(1).Potential (V);Corrected time (s);Index;WE(1).Current (A);Current range;Cutoffs
2.46021;0.465607;0;1;1.76697e-05;10 mA;
3.26021;0.475067;0.8;5;1.14441e-05;10 mA;
4.06021;0.482391;1.6;9;1.20544e-05;10 mA;
4.86021;0.4888;2.4;13;1.45874e-05;10 mA;
5.66021;0.494751;3.2;17;1.43127e-05;10 mA;
6.46021;0.500183;4;21;1.66016e-05;10 mA;
7.26021;0.505676;4.8;25;1.46179e-05;10 mA;
8.06021;0.510864;5.6;29;1.48926e-05;10 mA;
8.86021;0.515442;6.4;33;1.76392e-05;10 mA;
9.66021;0.520325;7.2;37;1.56555e-05;10 mA;
10.4602;0.524597;8;41;1.76697e-05;10 mA;
11.2602;0.52887;8.8;45;1.55029e-05;10 mA;
12.0602;0.533142;9.6;49;1.69678e-05;10 mA;
12.8602;0.537415;10.4;53;1.76392e-05;10 mA;
13.6602;0.541382;11.2;57;1.70593e-05;10 mA;
14.4602;0.545349;12;61;1.67847e-05;10 mA;
15.2602;0.549316;12.8;65;1.41296e-05;10 mA;
16.0602;0.553284;13.6;69;1.76392e-05;10 mA;
16.8602;0.556946;14.4;73;1.71814e-05;10 mA;
17.6602;0.560913;15.2;77;1.50146e-05;10 mA;
18.4602;0.564575;16;81;1.72729e-05;10 mA;
19.2602;0.568237;16.8;85;1.38245e-05;10 mA;
20.0602;0.571594;17.6;89;1.62354e-05;10 mA;
20.8602;0.575256;18.4;93;1.54114e-05;10 mA;
21.6602;0.578918;19.2;97;1.5625e-05;10 mA;
22.4602;0.582275;20;101;1.474e-05;10 mA;
23.2602;0.5859375;20.8;105;1.67236e-05;10 mA;
24.0602;0.589294;21.6;109;1.69373e-05;10 mA;
24.8602;0.592651;22.4;113;1.69373e-05;10 mA;
25.6602;0.596313;23.2;117;1.68762e-05;10 mA;
26.4602;0.59967;24;121;1.36719e-05;10 mA;
27.2602;0.602722;24.8;125;1.7334e-05;10 mA;
28.0602;0.606079;25.6;129;1.55334e-05;10 mA;
28.8602;0.609436;26.4;133;1.7334e-05;10 mA;
29.6602;0.612488;27.2;137;1.52893e-05;10 mA;
30.4602;0.615845;28;141;1.42517e-05;10 mA;
31.2602;0.618896;28.8;145;1.52893e-05;10 mA;
32.0602;0.621948;29.6;149;1.68152e-05;10 mA;
32.8602;0.625305;30.4;153;1.37939e-05;10 mA;
33.6602;0.628052;31.2;157;1.6449e-05;10 mA;
34.4602;0.631104;32;161;1.55029e-05;10 mA;
35.2602;0.634155;32.8;165;1.72729e-05;10 mA;
36.0602;0.637207;33.6;169;1.49536e-05;10 mA;
36.8602;0.640259;34.4;173;1.35193e-05;10 mA;
37.6602;0.643005;35.2;177;1.32751e-05;10 mA;
38.4602;0.645752;36;181;1.33667e-05;10 mA;
39.2602;0.648804;36.8;185;1.67847e-05;10 mA;
40.0602;0.65155;37.6;189;1.77002e-05;10 mA;
40.8602;0.654297;38.4;193;1.80054e-05;10 mA;
41.6602;0.657043;39.2;197;1.5686e-05;10 mA;
42.4602;0.65979;40;201;1.59302e-05;10 mA;
43.2602;0.662537;40.8;205;1.65405e-05;10 mA;
44.0602;0.665283;41.6;209;1.67542e-05;10 mA;
44.8602;0.66803;42.4;213;1.76086e-05;10 mA;
45.6602;0.670776;43.2;217;1.61438e-05;10 mA;
46.4602;0.673523;44;221;1.43738e-05;10 mA;
47.2602;0.675964;44.8;225;1.70593e-05;10 mA;
48.0602;0.678711;45.6;229;1.72729e-05;10 mA;
48.8602;0.681152;46.4;233;1.54114e-05;10 mA;
49.6602;0.683899;47.2;237;1.3031e-05;10 mA;
50.4602;0.68634;48;241;1.44348e-05;10 mA;
51.2602;0.688782;48.8;245;1.45569e-05;10 mA;
52.0602;0.691223;49.6;249;1.48926e-05;10 mA;
52.8602;0.693665;50.4;253;1.51062e-05;10 mA;
53.6602;0.696106;51.2;257;1.4801e-05;10 mA;
54.4602;0.698547;52;261;1.61743e-05;10 mA;
55.2602;0.700989;52.8;265;1.49231e-05;10 mA;
56.0602;0.70343;53.6;269;1.48926e-05;10 mA;
56.8602;0.705566;54.4;273;1.72424e-05;10 mA;
57.6602;0.708008;55.2;277;1.67847e-05;10 mA;
58.4602;0.710449;56;281;1.63269e-05;10 mA;
59.2602;0.712585;56.8;285;1.3855e-05;10 mA;
60.0602;0.714722;57.6;289;1.50146e-05;10 mA;
60.8602;0.716858;58.4;293;1.59607e-05;10 mA;
61.6602;0.718994;59.2;297;1.27563e-05;10 mA;
62.4602;0.72113;60;301;1.297e-05;10 mA;
63.2602;0.722961;60.8;305;1.41602e-05;10 mA;
64.0602;0.725098;61.6;309;1.48926e-05;10 mA;
64.8602;0.727234;62.4;313;1.31226e-05;10 mA;
65.6602;0.72937;63.2;317;1.53809e-05;10 mA;
66.4602;0.731201;64;321;1.67847e-05;10 mA;
67.2602;0.733032;64.8;325;1.53503e-05;10 mA;
68.0602;0.735168;65.6;329;1.69678e-05;10 mA;
68.8602;0.737;66.4;333;1.43433e-05;10 mA;
69.6602;0.738831;67.2;337;1.66016e-05;10 mA;
70.4602;0.740662;68;341;1.53198e-05;10 mA;
71.2602;0.742493;68.8;345;1.44653e-05;10 mA;
72.0602;0.744324;69.6;349;1.38245e-05;10 mA;
72.8602;0.746155;70.4;353;1.40991e-05;10 mA;
73.6602;0.747681;71.2;357;1.49231e-05;10 mA;
74.4602;0.749512;72;361;1.57166e-05;10 mA;
75.2602;0.751038;72.8;365;1.474e-05;10 mA;
76.0602;0.752563;73.6;369;1.45874e-05;10 mA;
76.8602;0.754395;74.4;373;1.50757e-05;10 mA;
77.6602;0.75592;75.2;377;1.50757e-05;10 mA;
78.4602;0.757751;76;381;1.474e-05;10 mA;
79.2602;0.759277;76.8;385;1.52283e-05;10 mA;
80.0602;0.760803;77.6;389;1.53503e-05;10 mA;
80.8602;0.762634;78.4;393;1.52893e-05;10 mA;
81.6602;0.76416;79.2;397;1.40686e-05;10 mA;
82.4602;0.765991;80;401;1.64185e-05;10 mA;
83.2602;0.767517;80.8;405;1.52893e-05;10 mA;
84.0602;0.769348;81.6;409;1.87988e-05;10 mA;
84.8602;0.770874;82.4;413;1.41602e-05;10 mA;
85.6602;0.772095;83.2;417;1.72729e-05;10 mA;
86.4602;0.773621;84;421;1.49841e-05;10 mA;
87.2602;0.775146;84.8;425;1.53503e-05;10 mA;
88.0602;0.776672;85.6;429;1.52588e-05;10 mA;
88.8602;0.778198;86.4;433;1.58386e-05;10 mA;
89.6602;0.779419;87.2;437;1.39771e-05;10 mA;
90.4602;0.780945;88;441;1.77002e-05;10 mA;
91.2602;0.782166;88.8;445;1.7395e-05;10 mA;
92.0602;0.783691;89.6;449;1.50757e-05;10 mA;
92.8602;0.784912;90.4;453;1.59912e-05;10 mA;
93.6602;0.786133;91.2;457;1.66321e-05;10 mA;
94.4602;0.787659;92;461;1.58997e-05;10 mA;
95.2602;0.788879;92.8;465;1.60828e-05;10 mA;
96.0602;0.7901;93.6;469;1.42212e-05;10 mA;
96.8602;0.791321;94.4;473;1.46179e-05;10 mA;
97.6602;0.792542;95.2;477;1.5625e-05;10 mA;
98.4602;0.793762;96;481;1.38245e-05;10 mA;
99.2602;0.794983;96.8;485;1.40686e-05;10 mA;
100.06;0.796204;97.6;489;1.63269e-05;10 mA;
100.86;0.797424;98.4;493;1.49536e-05;10 mA;
101.66;0.798645;99.2;497;1.66016e-05;10 mA;
102.46;0.799866;100;501;1.50757e-05;10 mA;
103.26;0.801086;100.8;505;1.43127e-05;10 mA;
104.06;0.802307;101.6;509;1.39465e-05;10 mA;
104.86;0.803528;102.4;513;1.62964e-05;10 mA;
105.66;0.804749;103.2;517;1.54724e-05;10 mA;
106.46;0.805969;104;521;1.70593e-05;10 mA;
107.26;0.80719;104.8;525;1.73645e-05;10 mA;
108.06;0.808411;105.6;529;1.44348e-05;10 mA;
108.86;0.809631;106.4;533;1.72729e-05;10 mA;
109.66;0.810852;107.2;537;1.3855e-05;10 mA;
110.46;0.811768;108;541;1.67542e-05;10 mA;
111.26;0.812988;108.8;545;1.39771e-05;10 mA;
112.06;0.814209;109.6;549;1.41602e-05;10 mA;
112.86;0.81543;110.4;553;1.37024e-05;10 mA;
113.66;0.816345;111.2;557;1.64795e-05;10 mA;
114.46;0.817566;112;561;1.6571e-05;10 mA;
115.26;0.818481;112.8;565;1.45569e-05;10 mA;
116.06;0.819702;113.6;569;1.40381e-05;10 mA;
116.86;0.820923;114.4;573;1.5686e-05;10 mA;
117.66;0.821838;115.2;577;1.75171e-05;10 mA;
118.46;0.823059;116;581;1.8158e-05;10 mA;
119.26;0.823975;116.8;585;1.62354e-05;10 mA;
120.06;0.82489;117.6;589;1.79138e-05;10 mA;
120.86;0.826111;118.4;593;1.66321e-05;10 mA;
121.66;0.827026;119.2;597;1.48315e-05;10 mA;
122.46;0.827942;120;601;1.43738e-05;10 mA;
123.26;0.828857;120.8;605;1.15356e-05;10 mA;
124.06;0.829773;121.6;609;1.81274e-05;10 mA;
124.86;0.830688;122.4;613;1.45874e-05;10 mA;
125.66;0.831604;123.2;617;1.74866e-05;10 mA;
126.46;0.83252;124;621;1.66016e-05;10 mA;
127.26;0.833435;124.8;625;1.55334e-05;10 mA;
128.06;0.834351;125.6;629;1.79443e-05;10 mA;
128.86;0.835266;126.4;633;1.64185e-05;10 mA;
129.66;0.836182;127.2;637;1.44653e-05;10 mA;
130.46;0.837097;128;641;1.36108e-05;10 mA;
131.26;0.838013;128.8;645;1.37024e-05;10 mA;
132.06;0.838623;129.6;649;1.54724e-05;10 mA;
132.86;0.839539;130.4;653;1.58386e-05;10 mA;
133.66;0.840149;131.2;657;1.42822e-05;10 mA;
134.46;0.841064;132;661;1.46179e-05;10 mA;
135.26;0.84198;132.8;665;1.40381e-05;10 mA;
136.06;0.84259;133.6;669;1.37329e-05;10 mA;
136.86;0.843506;134.4;673;1.54724e-05;10 mA;
137.66;0.844421;135.2;677;1.71814e-05;10 mA;
138.46;0.845032;136;681;1.50757e-05;10 mA;
139.26;0.845642;136.8;685;1.55334e-05;10 mA;
140.06;0.846558;137.6;689;1.73645e-05;10 mA;
140.86;0.847473;138.4;693;1.4801e-05;10 mA;
141.66;0.848083;139.2;697;1.3916e-05;10 mA;
142.46;0.848999;140;701;1.3855e-05;10 mA;
143.26;0.849609;140.8;705;1.43127e-05;10 mA;
144.06;0.850525;141.6;709;1.42212e-05;10 mA;WE(1).Potential > 0,85 V
144.26;0.85083;141.8;710;1.61743e-05;10 mA;WE(1).Potential > 0,85 V

File: CDMXene2-1Ag-1DESCARGA2.txt
Time (s);WE(1).Potential (V);Corrected time (s);Index;WE(1).Current (A)
937.196;0.838318;0;1;-3.26538e-06
939.396;0.805054;2.2;12;-5.37109e-06
941.596;0.785522;4.4;23;-3.72314e-06
943.796;0.769653;6.6;34;-2.44141e-06
945.996;0.75592;8.8;45;-4.02832e-06
948.196;0.743103;11;56;-3.38745e-06
950.396;0.731201;13.2;67;-4.60815e-06
952.596;0.720215;15.4;78;-3.50952e-06
954.796;0.709839;17.6;89;-4.39453e-06
956.996;0.700073;19.8;100;-2.04468e-06
959.196;0.690613;22;111;-4.63867e-06
961.396;0.681458;24.2;122;-5.67627e-06
963.596;0.672913;26.4;133;-4.5166e-06
965.796;0.664673;28.6;144;-2.44141e-06
967.996;0.656738;30.8;155;-5.95093e-06
970.196;0.648804;33;166;-5.43213e-06
972.396;0.641174;35.2;177;-9.76562e-07
974.596;0.633545;37.4;188;-2.83813e-06
976.796;0.626526;39.6;199;-1.95313e-06
978.996;0.619202;41.8;210;-3.20435e-06
981.196;0.612183;44;221;-3.66211e-06
983.396;0.605469;46.2;232;-3.57056e-06
985.596;0.598755;48.4;243;-3.08228e-06
987.796;0.592346;50.6;254;-3.17383e-06
989.996;0.5859375;52.8;265;-5.09644e-06
992.196;0.579834;55;276;-2.47192e-06
994.396;0.574036;57.2;287;-3.87573e-06
996.596;0.568237;59.4;298;-1.46484e-06
998.796;0.562744;61.6;309;-5.0354e-06
1001;0.557251;63.8;320;-5.40161e-06
1003.2;0.551758;66;331;-3.08228e-06
1005.4;0.546875;68.2;342;-2.7771e-06
1007.6;0.541687;70.4;353;-3.20435e-06
1009.8;0.536804;72.6;364;-2.19727e-06
1012;0.532227;74.8;375;-4.97437e-06
1014.2;0.527344;77;386;-4.91333e-06
1016.4;0.522766;79.2;397;-3.17383e-06
1018.6;0.518188;81.4;408;-5.46265e-06
1020.8;0.513916;83.6;419;-3.50952e-06
1023;0.509644;85.8;430;-3.2959e-06
1025.2;0.505371;88;441;-3.84521e-06
1027.4;0.501099;90.2;452;-4.24194e-06
1029.6;0.497498;92.4;463;-1.34277e-06
1031.8;0.493591;94.6;474;-1.34277e-06
1034;0.489716;96.8;485;-3.23486e-06
1036.2;0.486084;99;496;-5.00488e-06
1038.4;0.482269;101.2;507;-1.34277e-06
1040.6;0.478516;103.4;518;-4.15039e-06
1042.8;0.474915;105.6;529;-1.98364e-06
1045;0.471497;107.8;540;-3.32642e-06
1047.2;0.467987;110;551;-1.52588e-06
1049.4;0.46463;112.2;562;-4.02832e-06
1051.6;0.461365;114.4;573;-3.9978e-06
1053.8;0.458099;116.6;584;-3.50952e-06
1056;0.454803;118.8;595;-3.66211e-06
1058.2;0.45163;121;606;-2.56348e-06
1060.4;0.448669;123.2;617;-4.82178e-06
1062.6;0.445557;125.4;628;-2.41089e-06
1064.8;0.442627;127.6;639;-5.21851e-06
1067;0.439697;129.8;650;-2.92969e-06
1069.2;0.436676;132;661;-4.39453e-06
1071.4;0.43399;134.2;672;-4.91333e-06
1073.6;0.431091;136.4;683;-2.89917e-06
1075.8;0.428345;138.6;694;-4.54712e-06
1078;0.425751;140.8;705;-5.12695e-06
1080.2;0.42334;143;716;-3.11279e-06
1082.4;0.42099;145.2;727;-1.67847e-06
1084.6;0.41861;147.4;738;-1.70898e-06
1086.8;0.416351;149.6;749;-2.83813e-06
1089;0.4140625;151.8;760;-5.49316e-06
1091.2;0.411621;154;771;-2.10571e-06
1093.4;0.409241;156.2;782;-5.31006e-06
1095.6;0.40686;158.4;793;-4.60815e-06
1097.8;0.404663;160.6;804;-3.20435e-06
1100;0.402527;162.8;815;-5.27954e-06
1102.2;0.400269;165;826;-1.89209e-06
1104.4;0.398132;167.2;837;-2.0752e-06
1106.6;0.395905;169.4;848;-3.9978e-06
1108.8;0.393677;171.6;859;-4.91333e-06
1111;0.391571;173.8;870;-1.64795e-06
1113.2;0.389435;176;881;-2.2583e-06
1115.4;0.387421;178.2;892;-4.66919e-06
1117.6;0.385437;180.4;903;-5.34058e-06
1119.8;0.383423;182.6;914;-1.37329e-06
1122;0.381409;184.8;925;-1.58691e-06
1124.2;0.379547;187;936;-4.18091e-06
1126.4;0.377594;189.2;947;-3.41797e-06
1128.6;0.375702;191.4;958;-3.50952e-06
1130.8;0.373962;193.6;969;-1.77002e-06
1133;0.372192;195.8;980;-2.47192e-06
1135.2;0.370422;198;991;-1.92261e-06
1137.4;0.368591;200.2;1002;-2.38037e-06
1139.6;0.366699;202.4;1013;-2.68555e-06
1141.8;0.364807;204.6;1024;-2.99072e-06
1144;0.363159;206.8;1035;-5.49316e-06
1146.2;0.36142;209;1046;-1.61743e-06
1148.4;0.359558;211.2;1057;-3.90625e-06
1150.6;0.357697;213.4;1068;-4.30298e-06
1152.8;0.355774;215.6;1079;-3.20435e-06
1155;0.353943;217.8;1090;-5.15747e-06
1157.2;0.352173;220;1101;-1.98364e-06
1159.4;0.350494;222.2;1112;-3.63159e-06
1161.6;0.348816;224.4;1123;-5.31006e-06
1163.8;0.347107;226.6;1134;-5.15747e-06
1166;0.345459;228.8;1145;-4.97437e-06
1168.2;0.343719;231;1156;-5.09644e-06
1170.4;0.342133;233.2;1167;-3.54004e-06
1172.6;0.340515;235.4;1178;-2.04468e-06
1174.8;0.338928;237.6;1189;-2.19727e-06
1177;0.337341;239.8;1200;-4.27246e-06
1179.2;0.335693;242;1211;-3.08228e-06
1181.4;0.334106;244.2;1222;-3.14331e-06
1183.6;0.332428;246.4;1233;-1.25122e-06
1185.8;0.330811;248.6;1244;-3.60107e-06
1188;0.329315;250.8;1255;-4.88281e-06
1190.2;0.327698;253;1266;-3.17383e-06
1192.4;0.32608;255.2;1277;-3.8147e-06
1194.6;0.324524;257.4;1288;-5.67627e-06
1196.8;0.322906;259.6;1299;-1.95313e-06
1199;0.321259;261.8;1310;-1.28174e-06
1201.2;0.319611;264;1321;-2.04468e-06
1203.4;0.318115;266.2;1332;-3.60107e-06
1205.6;0.316559;268.4;1343;-5.82886e-06
1207.8;0.314941;270.6;1354;-5.46265e-06
1210;0.313293;272.8;1365;-5.43213e-06
1212.2;0.311676;275;1376;-2.92969e-06
1214.4;0.310089;277.2;1387;-2.83813e-06
1216.6;0.308533;279.4;1398;-1.83105e-06
1218.8;0.306976;281.6;1409;-4.11987e-06
1221;0.305511;283.8;1420;-2.01416e-06
1223.2;0.304108;286;1431;-4.45557e-06
1225.4;0.302673;288.2;1442;-2.47192e-06
1227.6;0.301239;290.4;1453;-4.76074e-06
1229.8;0.299744;292.6;1464;-4.21143e-06
1232;0.29837;294.8;1475;-4.21143e-06
1234.2;0.296906;297;1486;-1.64795e-06
1236.4;0.29541;299.2;1497;-3.17383e-06
1238.6;0.294006;301.4;1508;-4.79126e-06
1240.8;0.292542;303.6;1519;-4.63867e-06
1243;0.291107;305.8;1530;-3.93677e-06
1245.2;0.289673;308;1541;-2.68555e-06
1247.4;0.288422;310.2;1552;-2.44141e-06
1249.6;0.287109;312.4;1563;-2.7771e-06
1251.8;0.285736;314.6;1574;-4.88281e-06
1254;0.28421;316.8;1585;-5.92041e-06
1256.2;0.282715;319;1596;-2.80762e-06
1258.4;0.28125;321.2;1607;-4.54712e-06
1260.6;0.279877;323.4;1618;-5.21851e-06
1262.8;0.278564;325.6;1629;-2.92969e-06
1265;0.277069;327.8;1640;-5.88989e-06
1267.2;0.275574;330;1651;-3.50952e-06
1269.4;0.274261;332.2;1662;-2.41089e-06
1271.6;0.272705;334.4;1673;-3.63159e-06
1273.8;0.271088;336.6;1684;-3.50952e-06
1276;0.269531;338.8;1695;-1.52588e-06
1278.2;0.268127;341;1706;-5.43213e-06
1280.4;0.266724;343.2;1717;-3.11279e-06
1282.6;0.265411;345.4;1728;-3.23486e-06
1284.8;0.264008;347.6;1739;-2.74658e-06
1287;0.262634;349.8;1750;-3.60107e-06
1289.2;0.261292;352;1761;-4.54712e-06
1291.4;0.259888;354.2;1772;-5.98145e-06
1293.6;0.258636;356.4;1783;-5.5542e-06
1295.8;0.257416;358.6;1794;-3.44849e-06
1298;0.256104;360.8;1805;-4.5166e-06
1300.2;0.2547;363;1816;-5.43213e-06
1302.4;0.253235;365.2;1827;-2.44141e-06
1304.6;0.251953;367.4;1838;-5.34058e-06
1306.8;0.250519;369.6;1849;-4.73022e-06
1309;0.249176;371.8;1860;-4.79126e-06
1311.2;0.247833;374;1871;-3.35693e-06
1313.4;0.246521;376.2;1882;-2.99072e-06
1315.6;0.245087;378.4;1893;-2.2583e-06
1317.8;0.243713;380.6;1904;-4.08936e-06
1320;0.24231;382.8;1915;-5.06592e-06
1322.2;0.240875;385;1926;-5.0354e-06
1324.4;0.239441;387.2;1937;-3.50952e-06
1326.6;0.238129;389.4;1948;-3.78418e-06
1328.8;0.236938;391.6;1959;-5.34058e-06
1331;0.235809;393.8;1970;-2.65503e-06
1333.2;0.234528;396;1981;-2.19727e-06
1335.4;0.233337;398.2;1992;-2.96021e-06
1337.6;0.232086;400.4;2003;-3.9978e-06
1339.8;0.230865;402.6;2014;-3.9978e-06
1342;0.229645;404.8;2025;-5.92041e-06
1344.2;0.228485;407;2036;-1.00708e-06
1346.4;0.227386;409.2;2047;-4.3335e-06
1348.6;0.226196;411.4;2058;-5.18799e-06
1350.8;0.225037;413.6;2069;-3.54004e-06
1353;0.223877;415.8;2080;-2.65503e-06
1355.2;0.222687;418;2091;-5.49316e-06
1357.4;0.221619;420.2;2102;-4.24194e-06
1359.6;0.220642;422.4;2113;-3.66211e-07
1361.8;0.219696;424.6;2124;-4.76074e-06
1364;0.218842;426.8;2135;-4.88281e-06
1366.2;0.217804;429;2146;-2.0752e-06
1368.4;0.216705;431.2;2157;-2.99072e-06
1370.6;0.215637;433.4;2168;-5.61523e-06
1372.8;0.214508;435.6;2179;-6.13403e-06
1375;0.213379;437.8;2190;-2.92969e-06
1377.2;0.21225;440;2201;-2.68555e-06
1379.4;0.211243;442.2;2212;-4.48608e-06
1381.6;0.210114;444.4;2223;-3.54004e-06
1383.8;0.209015;446.6;2234;-3.66211e-06
1386;0.207855;448.8;2245;-2.56348e-06
1388.2;0.206848;451;2256;-2.34985e-06
1390.4;0.20578;453.2;2267;-4.94385e-06
1392.6;0.204956;455.4;2278;-2.65503e-06
1394.8;0.204102;457.6;2289;-3.72314e-06
1397;0.203125;459.8;2300;-4.18091e-06
1399.2;0.202026;462;2311;-5.52368e-06
1401.4;0.200897;464.2;2322;-2.59399e-06
1403.6;0.199982;466.4;2333;-4.05884e-06
1405.8;0.198944;468.6;2344;-5.88989e-06
1408;0.19812;470.8;2355;-3.63159e-06
1410.2;0.197266;473;2366;-4.18091e-06
1412.4;0.19632;475.2;2377;-4.69971e-06
1414.6;0.195435;477.4;2388;-2.01416e-06
1416.8;0.19458;479.6;2399;-4.27246e-06
1419;0.193665;481.8;2410;-1.43433e-06
1421.2;0.19278;484;2421;-4.97437e-06
1423.4;0.191895;486.2;2432;-4.39453e-06
1425.6;0.19104;488.4;2443;-3.23486e-06
1427.8;0.190247;490.6;2454;-1.95313e-06
1430;0.189392;492.8;2465;-4.48608e-06
1432.2;0.188507;495;2476;-1.58691e-06
1434.4;0.187683;497.2;2487;-4.45557e-06
1436.6;0.18692;499.4;2498;-6.2561e-06
1438.8;0.186371;501.6;2509;-4.57764e-06
1441;0.18576;503.8;2520;-3.87573e-06
1443.2;0.185089;506;2531;-7.32422e-06
1445.4;0.184357;508.2;2542;-1.06812e-06
1447.6;0.183655;510.4;2553;-3.93677e-06
1449.8;0.182922;512.6;2564;-3.02124e-06
1452;0.182098;514.8;2575;-2.04468e-06
1454.2;0.181274;517;2586;-4.21143e-06
1456.4;0.180389;519.2;2597;-5.34058e-06
1458.6;0.179474;521.4;2608;-2.44141e-06
1460.8;0.178772;523.6;2619;-3.63159e-06
1463;0.177948;525.8;2630;-5.12695e-06
1465.2;0.177124;528;2641;-3.35693e-06
1467.4;0.176331;530.2;2652;-2.10571e-06
1469.6;0.175537;532.4;2663;-2.99072e-06
1471.8;0.174713;534.6;2674;-4.82178e-06
1474;0.174072;536.8;2685;-1.25122e-06
1476.2;0.173553;539;2696;-3.17383e-06
1477.4;0.173157;540.2;2702;-5.37109e-06