Folder: Carga-Descarga (part 2)

File: CD-Mxene3-5Ag-CARGA.txt
Time (s);WE(1).Potential (V);Corrected time (s);Index;WE(1).Current (A);Current range;Cutoffs
196.114;-0.0126404;0;1;5.59998e-05;10 mA;WE(1).Potential > 0,85 V , WE(1).Potential > 0,85 V , WE(1).Potential > 0,85 V , WE(1).Potential > 0,85 V
196.314;-0.00266724;0.2;2;5.59387e-05;10 mA;
196.914;0.019046;0.8;5;5.57861e-05;10 mA;
197.514;0.0355499;1.4;8;5.61829e-05;10 mA;
198.114;0.0496826;2;11;5.58167e-05;10 mA;
198.714;0.0623474;2.6;14;5.61218e-05;10 mA;
199.314;0.0739136;3.2;17;5.62134e-05;10 mA;
199.914;0.0846863;3.8;20;5.62439e-05;10 mA;
200.514;0.0949097;4.4;23;5.61829e-05;10 mA;
201.114;0.104614;5;26;5.62439e-05;10 mA;
201.714;0.113892;5.6;29;5.60913e-05;10 mA;
202.314;0.122772;6.2;32;5.65186e-05;10 mA;
202.914;0.131287;6.8;35;5.64575e-05;10 mA;
203.514;0.139587;7.4;38;5.61829e-05;10 mA;
204.114;0.147522;8;41;5.60913e-05;10 mA;
204.714;0.155243;8.6;44;5.61218e-05;10 mA;
205.314;0.16275;9.2;47;5.60608e-05;10 mA;
205.914;0.170074;9.8;50;5.64575e-05;10 mA;
206.514;0.177246;10.4;53;5.64575e-05;10 mA;
207.114;0.184204;11;56;5.59692e-05;10 mA;
207.714;0.19104;11.6;59;5.6366e-05;10 mA;
208.314;0.197632;12.2;62;5.60913e-05;10 mA;
208.914;0.204102;12.8;65;5.62439e-05;10 mA;
209.514;0.210419;13.4;68;5.60303e-05;10 mA;
210.114;0.216644;14;71;5.59692e-05;10 mA;
210.714;0.222748;14.6;74;5.61218e-05;10 mA;
211.314;0.228699;15.2;77;5.65186e-05;10 mA;
211.914;0.234558;15.8;80;5.61218e-05;10 mA;
212.514;0.240387;16.4;83;5.60913e-05;10 mA;
213.114;0.246155;17;86;5.61218e-05;10 mA;
213.714;0.251801;17.6;89;5.66101e-05;10 mA;
214.314;0.257385;18.2;92;5.60913e-05;10 mA;
214.914;0.262848;18.8;95;5.59692e-05;10 mA;
215.514;0.26825;19.4;98;5.59692e-05;10 mA;
216.114;0.273529;20;101;5.64575e-05;10 mA;
216.714;0.278778;20.6;104;5.65491e-05;10 mA;
217.314;0.283936;21.2;107;5.62134e-05;10 mA;
217.914;0.2890625;21.8;110;5.60608e-05;10 mA;
218.514;0.294128;22.4;113;5.6488e-05;10 mA;
219.114;0.299103;23;116;5.62744e-05;10 mA;
219.714;0.304016;23.6;119;5.6366e-05;10 mA;
220.314;0.308868;24.2;122;5.6366e-05;10 mA;
220.914;0.313629;24.8;125;5.61218e-05;10 mA;
221.514;0.318359;25.4;128;5.61523e-05;10 mA;
222.114;0.323029;26;131;5.6366e-05;10 mA;
222.714;0.327698;26.6;134;5.6366e-05;10 mA;
223.314;0.332245;27.2;137;5.63354e-05;10 mA;
223.914;0.336761;27.8;140;5.6488e-05;10 mA;
224.514;0.341278;28.4;143;5.61829e-05;10 mA;
225.114;0.345642;29;146;5.61829e-05;10 mA;
225.714;0.350037;29.6;149;5.61523e-05;10 mA;
226.314;0.354401;30.2;152;5.60303e-05;10 mA;
226.914;0.358704;30.8;155;5.60608e-05;10 mA;
227.514;0.363007;31.4;158;5.62134e-05;10 mA;
228.114;0.367249;32;161;5.62744e-05;10 mA;
228.714;0.371399;32.6;164;5.62439e-05;10 mA;
229.314;0.375519;33.2;167;5.61829e-05;10 mA;
229.914;0.379669;33.8;170;5.60913e-05;10 mA;
230.514;0.383789;34.4;173;5.62744e-05;10 mA;
231.114;0.387878;35;176;5.63049e-05;10 mA;
231.714;0.391907;35.6;179;5.61829e-05;10 mA;
232.314;0.395935;36.2;182;5.6366e-05;10 mA;
232.914;0.400024;36.8;185;5.63049e-05;10 mA;
233.514;0.404083;37.4;188;5.63049e-05;10 mA;
234.114;0.408142;38;191;5.62134e-05;10 mA;
234.714;0.412201;38.6;194;5.62134e-05;10 mA;
235.314;0.416321;39.2;197;5.60303e-05;10 mA;
235.914;0.420502;39.8;200;5.6366e-05;10 mA;
236.514;0.424591;40.4;203;5.61218e-05;10 mA;
237.114;0.428711;41;206;5.66406e-05;10 mA;
237.714;0.432861;41.6;209;5.63965e-05;10 mA;
238.314;0.437042;42.2;212;5.63354e-05;10 mA;
238.914;0.441254;42.8;215;5.67322e-05;10 mA;
239.514;0.445496;43.4;218;5.61218e-05;10 mA;
240.114;0.449768;44;221;5.64575e-05;10 mA;
240.714;0.454071;44.6;224;5.64575e-05;10 mA;
241.314;0.458374;45.2;227;5.59082e-05;10 mA;
241.914;0.462799;45.8;230;5.63049e-05;10 mA;
242.514;0.467224;46.4;233;5.6488e-05;10 mA;
243.114;0.471619;47;236;5.65796e-05;10 mA;
243.714;0.476105;47.6;239;5.66711e-05;10 mA;
244.314;0.480591;48.2;242;5.63354e-05;10 mA;
244.914;0.485046;48.8;245;5.68542e-05;10 mA;
245.514;0.489655;49.4;248;5.61523e-05;10 mA;
246.114;0.494324;50;251;5.63354e-05;10 mA;
246.714;0.498962;50.6;254;5.6366e-05;10 mA;
247.314;0.50354;51.2;257;5.67932e-05;10 mA;
247.914;0.508118;51.8;260;5.63354e-05;10 mA;
248.514;0.513;52.4;263;5.63965e-05;10 mA;
249.114;0.517883;53;266;5.65491e-05;10 mA;
249.714;0.522766;53.6;269;5.65186e-05;10 mA;
250.314;0.527649;54.2;272;5.63354e-05;10 mA;
250.914;0.532227;54.8;275;5.66101e-05;10 mA;
251.514;0.537415;55.4;278;5.6427e-05;10 mA;
252.114;0.542297;56;281;5.6366e-05;10 mA;
252.714;0.54718;56.6;284;5.63965e-05;10 mA;
253.314;0.552063;57.2;287;5.65491e-05;10 mA;
253.914;0.557251;57.8;290;5.69458e-05;10 mA;
254.514;0.562134;58.4;293;5.65491e-05;10 mA;
255.114;0.567322;59;296;5.63049e-05;10 mA;
255.714;0.57251;59.6;299;5.66101e-05;10 mA;
256.314;0.577698;60.2;302;5.6366e-05;10 mA;
256.914;0.582886;60.8;305;5.66406e-05;10 mA;
257.514;0.587769;61.4;308;5.66101e-05;10 mA;
258.114;0.592957;62;311;5.67017e-05;10 mA;
258.714;0.598145;62.6;314;5.65796e-05;10 mA;
259.314;0.603333;63.2;317;5.65186e-05;10 mA;
259.914;0.608826;63.8;320;5.6488e-05;10 mA;
260.514;0.614014;64.4;323;5.6488e-05;10 mA;
261.114;0.619202;65;326;5.65796e-05;10 mA;
261.714;0.624695;65.6;329;5.65796e-05;10 mA;
262.314;0.629883;66.2;332;5.63049e-05;10 mA;
262.914;0.635376;66.8;335;5.63354e-05;10 mA;
263.514;0.640564;67.4;338;5.65796e-05;10 mA;
264.114;0.645752;68;341;5.63965e-05;10 mA;
264.714;0.651245;68.6;344;5.60608e-05;10 mA;
265.314;0.656738;69.2;347;5.60608e-05;10 mA;
265.914;0.662231;69.8;350;5.67627e-05;10 mA;
266.514;0.667419;70.4;353;5.66711e-05;10 mA;
267.114;0.672913;71;356;5.68542e-05;10 mA;
267.714;0.678406;71.6;359;5.67322e-05;10 mA;
268.314;0.683594;72.2;362;5.65796e-05;10 mA;
268.914;0.689087;72.8;365;5.67322e-05;10 mA;
269.514;0.69458;73.4;368;5.67322e-05;10 mA;
270.114;0.700073;74;371;5.6488e-05;10 mA;
270.714;0.705566;74.6;374;5.6427e-05;10 mA;
271.314;0.710754;75.2;377;5.61829e-05;10 mA;
271.914;0.716248;75.8;380;5.64575e-05;10 mA;
272.514;0.721741;76.4;383;5.62134e-05;10 mA;
273.114;0.727234;77;386;5.66101e-05;10 mA;
273.714;0.732422;77.6;389;5.67017e-05;10 mA;
274.314;0.737915;78.2;392;5.69763e-05;10 mA;
274.914;0.743408;78.8;395;5.64575e-05;10 mA;
275.514;0.748901;79.4;398;5.65796e-05;10 mA;
276.114;0.754089;80;401;5.67627e-05;10 mA;
276.714;0.759583;80.6;404;5.63049e-05;10 mA;
277.314;0.764771;81.2;407;5.61829e-05;10 mA;
277.914;0.769958;81.8;410;5.64575e-05;10 mA;
278.514;0.775452;82.4;413;5.68848e-05;10 mA;
279.114;0.78064;83;416;5.6488e-05;10 mA;
279.714;0.785522;83.6;419;5.63965e-05;10 mA;
280.314;0.790405;84.2;422;5.65796e-05;10 mA;
280.914;0.795593;84.8;425;5.65796e-05;10 mA;
281.514;0.800476;85.4;428;5.62439e-05;10 mA;
282.114;0.805359;86;431;5.68237e-05;10 mA;
282.714;0.810242;86.6;434;5.63965e-05;10 mA;
283.314;0.814819;87.2;437;5.68542e-05;10 mA;
283.914;0.819397;87.8;440;5.67322e-05;10 mA;
284.514;0.823975;88.4;443;5.63965e-05;10 mA;
285.114;0.828552;89;446;5.65796e-05;10 mA;
285.714;0.832825;89.6;449;5.6488e-05;10 mA;
286.314;0.836792;90.2;452;5.6366e-05;10 mA;
286.914;0.841064;90.8;455;5.68542e-05;10 mA;
287.514;0.844727;91.4;458;5.66101e-05;10 mA;
288.114;0.848694;92;461;5.67017e-05;10 mA;
288.714;0.852356;92.6;464;5.65796e-05;10 mA;WE(1).Potential > 0,85 V
289.114;0.854797;93;466;5.65796e-05;10 mA;WE(1).Potential > 0,85 V

File: CD-Mxene3-5Ag-DESCARGA.txt
Time (s);WE(1).Potential (V);Corrected time (s);Index;WE(1).Current (A);Current range;Cutoffs
289.314;0.777588;0;1;-4.40674e-05;10 mA;WE(1).Potential < -0,1 V , WE(1).Potential < -0,1 V , WE(1).Potential < -0,1 V , WE(1).Potential < -0,1 V
289.514;0.759583;0.2;2;-4.41895e-05;10 mA;
290.114;0.726013;0.8;5;-4.44336e-05;10 mA;
290.714;0.703125;1.4;8;-4.40369e-05;10 mA;
291.314;0.684204;2;11;-4.43115e-05;10 mA;
291.914;0.66803;2.6;14;-4.43726e-05;10 mA;
292.514;0.653076;3.2;17;-4.41284e-05;10 mA;
293.114;0.639343;3.8;20;-4.40369e-05;10 mA;
293.714;0.626831;4.4;23;-4.42505e-05;10 mA;
294.314;0.614624;5;26;-4.4281e-05;10 mA;
294.914;0.603027;5.6;29;-4.41284e-05;10 mA;
295.514;0.591736;6.2;32;-4.42505e-05;10 mA;
296.114;0.58136;6.8;35;-4.43115e-05;10 mA;
296.714;0.570984;7.4;38;-4.40979e-05;10 mA;
297.314;0.561218;8;41;-4.41284e-05;10 mA;
297.914;0.551758;8.6;44;-4.4281e-05;10 mA;
298.514;0.542603;9.2;47;-4.39758e-05;10 mA;
299.114;0.533752;9.8;50;-4.41589e-05;10 mA;
299.714;0.525208;10.4;53;-4.41589e-05;10 mA;
300.314;0.516968;11;56;-4.44946e-05;10 mA;
300.914;0.508728;11.6;59;-4.4281e-05;10 mA;
301.514;0.501099;12.2;62;-4.44031e-05;10 mA;
302.114;0.493622;12.8;65;-4.40674e-05;10 mA;
302.714;0.486328;13.4;68;-4.4281e-05;10 mA;
303.314;0.479218;14;71;-4.39758e-05;10 mA;
303.914;0.472229;14.6;74;-4.44031e-05;10 mA;
304.514;0.465576;15.2;77;-4.44336e-05;10 mA;
305.114;0.458923;15.8;80;-4.422e-05;10 mA;
305.714;0.452576;16.4;83;-4.4342e-05;10 mA;
306.314;0.44632;17;86;-4.45251e-05;10 mA;
306.914;0.440247;17.6;89;-4.44946e-05;10 mA;
307.514;0.434357;18.2;92;-4.46167e-05;10 mA;
308.114;0.428619;18.8;95;-4.45557e-05;10 mA;
308.714;0.423065;19.4;98;-4.44031e-05;10 mA;
309.314;0.417664;20;101;-4.44946e-05;10 mA;
309.914;0.412384;20.6;104;-4.46777e-05;10 mA;
310.514;0.407257;21.2;107;-4.47998e-05;10 mA;
311.114;0.402283;21.8;110;-4.44641e-05;10 mA;
311.714;0.397491;22.4;113;-4.47083e-05;10 mA;
312.314;0.392761;23;116;-4.45557e-05;10 mA;
312.914;0.388245;23.6;119;-4.47693e-05;10 mA;
313.514;0.383759;24.2;122;-4.48303e-05;10 mA;
314.114;0.379425;24.8;125;-4.50134e-05;10 mA;
314.714;0.375153;25.4;128;-4.45862e-05;10 mA;
315.314;0.371002;26;131;-4.44641e-05;10 mA;
315.914;0.366913;26.6;134;-4.47388e-05;10 mA;
316.514;0.362946;27.2;137;-4.49829e-05;10 mA;
317.114;0.359039;27.8;140;-4.47998e-05;10 mA;
317.714;0.355286;28.4;143;-4.46777e-05;10 mA;
318.314;0.351532;29;146;-4.47998e-05;10 mA;
318.914;0.347839;29.6;149;-4.44946e-05;10 mA;
319.514;0.344147;30.2;152;-4.47388e-05;10 mA;
320.114;0.340637;30.8;155;-4.42505e-05;10 mA;
320.714;0.337128;31.4;158;-4.45557e-05;10 mA;
321.314;0.333679;32;161;-4.47998e-05;10 mA;
321.914;0.3302;32.6;164;-4.46777e-05;10 mA;
322.514;0.326813;33.2;167;-4.46777e-05;10 mA;
323.114;0.323486;33.8;170;-4.47388e-05;10 mA;
323.714;0.320129;34.4;173;-4.47388e-05;10 mA;
324.314;0.316803;35;176;-4.45251e-05;10 mA;
324.914;0.313568;35.6;179;-4.50134e-05;10 mA;
325.514;0.310364;36.2;182;-4.44641e-05;10 mA;
326.114;0.30719;36.8;185;-4.45557e-05;10 mA;
326.714;0.304047;37.4;188;-4.49219e-05;10 mA;
327.314;0.300934;38;191;-4.47998e-05;10 mA;
327.914;0.297821;38.6;194;-4.48608e-05;10 mA;
328.514;0.294678;39.2;197;-4.44336e-05;10 mA;
329.114;0.291595;39.8;200;-4.48608e-05;10 mA;
329.714;0.288483;40.4;203;-4.44641e-05;10 mA;
330.314;0.2854;41;206;-4.52576e-05;10 mA;
330.914;0.282288;41.6;209;-4.49524e-05;10 mA;
331.514;0.279297;42.2;212;-4.4342e-05;10 mA;
332.114;0.276245;42.8;215;-4.49829e-05;10 mA;
332.714;0.273254;43.4;218;-4.47998e-05;10 mA;
333.314;0.270203;44;221;-4.50134e-05;10 mA;
333.914;0.26712;44.6;224;-4.44946e-05;10 mA;
334.514;0.264069;45.2;227;-4.46167e-05;10 mA;
335.114;0.261047;45.8;230;-4.45862e-05;10 mA;
335.714;0.257965;46.4;233;-4.46167e-05;10 mA;
336.314;0.254913;47;236;-4.48608e-05;10 mA;
336.914;0.251923;47.6;239;-4.47693e-05;10 mA;
337.514;0.24881;48.2;242;-4.47693e-05;10 mA;
338.114;0.245697;48.8;245;-4.47083e-05;10 mA;
338.714;0.242584;49.4;248;-4.47998e-05;10 mA;
339.314;0.239471;50;251;-4.46167e-05;10 mA;
339.914;0.236389;50.6;254;-4.45251e-05;10 mA;
340.514;0.233307;51.2;257;-4.44641e-05;10 mA;
341.114;0.230164;51.8;260;-4.50439e-05;10 mA;
341.714;0.227051;52.4;263;-4.47388e-05;10 mA;
342.314;0.223877;53;266;-4.46472e-05;10 mA;
342.914;0.220825;53.6;269;-4.44946e-05;10 mA;
343.514;0.217651;54.2;272;-4.46167e-05;10 mA;
344.114;0.214508;54.8;275;-4.47083e-05;10 mA;
344.714;0.211334;55.4;278;-4.44031e-05;10 mA;
345.314;0.20816;56;281;-4.47998e-05;10 mA;
345.914;0.205017;56.6;284;-4.49219e-05;10 mA;
346.514;0.201813;57.2;287;-4.48608e-05;10 mA;
347.114;0.198608;57.8;290;-4.47693e-05;10 mA;
347.714;0.195465;58.4;293;-4.48303e-05;10 mA;
348.314;0.19223;59;296;-4.46472e-05;10 mA;
348.914;0.188995;59.6;299;-4.48608e-05;10 mA;
349.514;0.18576;60.2;302;-4.48303e-05;10 mA;
350.114;0.182465;60.8;305;-4.49829e-05;10 mA;
350.714;0.179199;61.4;308;-4.48914e-05;10 mA;
351.314;0.175934;62;311;-4.47693e-05;10 mA;
351.914;0.172638;62.6;314;-4.47388e-05;10 mA;
352.514;0.169373;63.2;317;-4.46777e-05;10 mA;
353.114;0.166046;63.8;320;-4.50134e-05;10 mA;
353.714;0.162781;64.4;323;-4.48608e-05;10 mA;
354.314;0.159454;65;326;-4.46472e-05;10 mA;
354.914;0.156097;65.6;329;-4.50745e-05;10 mA;
355.514;0.152771;66.2;332;-4.47693e-05;10 mA;
356.114;0.149414;66.8;335;-4.5166e-05;10 mA;
356.714;0.146027;67.4;338;-4.45557e-05;10 mA;
357.314;0.142639;68;341;-4.49219e-05;10 mA;
357.914;0.139252;68.6;344;-4.48303e-05;10 mA;
358.514;0.135864;69.2;347;-4.47693e-05;10 mA;
359.114;0.132446;69.8;350;-4.49524e-05;10 mA;
359.714;0.129059;70.4;353;-4.5105e-05;10 mA;
360.314;0.12558;71;356;-4.46167e-05;10 mA;
360.914;0.122101;71.6;359;-4.47998e-05;10 mA;
361.514;0.118622;72.2;362;-4.48608e-05;10 mA;
362.114;0.115143;72.8;365;-4.47388e-05;10 mA;
362.714;0.111664;73.4;368;-4.46167e-05;10 mA;
363.314;0.108093;74;371;-4.49219e-05;10 mA;
363.914;0.104614;74.6;374;-4.43726e-05;10 mA;
364.514;0.101044;75.2;377;-4.49219e-05;10 mA;
365.114;0.0974426;75.8;380;-4.48914e-05;10 mA;
365.714;0.0939026;76.4;383;-4.49219e-05;10 mA;
366.314;0.0903625;77;386;-4.47998e-05;10 mA;
366.914;0.086792;77.6;389;-4.47998e-05;10 mA;
367.514;0.0832214;78.2;392;-4.45251e-05;10 mA;
368.114;0.0796509;78.8;395;-4.48608e-05;10 mA;
368.714;0.0761108;79.4;398;-4.48914e-05;10 mA;
369.314;0.0726013;80;401;-4.48608e-05;10 mA;
369.914;0.0690002;80.6;404;-4.48608e-05;10 mA;
370.514;0.0654297;81.2;407;-4.48914e-05;10 mA;
371.114;0.0618591;81.8;410;-4.45557e-05;10 mA;
371.714;0.0582275;82.4;413;-4.45251e-05;10 mA;
372.314;0.0546265;83;416;-4.47693e-05;10 mA;
372.914;0.0510559;83.6;419;-4.47083e-05;10 mA;
373.514;0.0474579;84.2;422;-4.48608e-05;10 mA;
374.114;0.0439148;84.8;425;-4.48303e-05;10 mA;
374.714;0.0403107;85.4;428;-4.48303e-05;10 mA;
375.314;0.0367615;86;431;-4.50745e-05;10 mA;
375.914;0.0331726;86.6;434;-4.48914e-05;10 mA;
376.514;0.0295837;87.2;437;-4.46777e-05;10 mA;
377.114;0.0260193;87.8;440;-4.49829e-05;10 mA;
377.714;0.0225128;88.4;443;-4.50745e-05;10 mA;
378.314;0.018988;89;446;-4.49524e-05;10 mA;
378.914;0.0154877;89.6;449;-4.49524e-05;10 mA;
379.514;0.0119659;90.2;452;-4.47083e-05;10 mA;
380.114;0.00845337;90.8;455;-4.49219e-05;10 mA;
380.714;0.00496216;91.4;458;-4.50745e-05;10 mA;
381.314;0.00149536;92;461;-4.46167e-05;10 mA;
381.914;-0.00195923;92.6;464;-4.47998e-05;10 mA;
382.514;-0.00546875;93.2;467;-4.45862e-05;10 mA;
383.114;-0.00900879;93.8;470;-4.50134e-05;10 mA;
383.714;-0.0124664;94.4;473;-4.45251e-05;10 mA;
384.314;-0.0159851;95;476;-4.49524e-05;10 mA;
384.914;-0.0194397;95.6;479;-4.48914e-05;10 mA;
385.514;-0.0227692;96.2;482;-4.48608e-05;10 mA;
386.114;-0.0261963;96.8;485;-4.46472e-05;10 mA;
386.714;-0.0295685;97.4;488;-4.49524e-05;10 mA;
387.314;-0.0329224;98;491;-4.51355e-05;10 mA;
387.914;-0.0361908;98.6;494;-4.47998e-05;10 mA;
388.514;-0.0394104;99.2;497;-4.49829e-05;10 mA;
389.114;-0.0426392;99.8;500;-4.49219e-05;10 mA;
389.714;-0.0458374;100.4;503;-4.50134e-05;10 mA;
390.314;-0.0489441;101;506;-4.48303e-05;10 mA;
390.914;-0.052124;101.6;509;-4.47693e-05;10 mA;
391.514;-0.0552979;102.2;512;-4.48914e-05;10 mA;
392.114;-0.0584106;102.8;515;-4.49219e-05;10 mA;
392.714;-0.0615234;103.4;518;-4.47083e-05;10 mA;
393.314;-0.0645752;104;521;-4.49219e-05;10 mA;
393.914;-0.0675659;104.6;524;-4.50439e-05;10 mA;
394.514;-0.0705261;105.2;527;-4.50134e-05;10 mA;
395.114;-0.0734558;105.8;530;-4.47388e-05;10 mA;
395.714;-0.0763245;106.4;533;-4.50745e-05;10 mA;
396.314;-0.0791016;107;536;-4.48914e-05;10 mA;
396.914;-0.0818176;107.6;539;-4.48914e-05;10 mA;
397.514;-0.0845032;108.2;542;-4.50134e-05;10 mA;
398.114;-0.0871887;108.8;545;-4.45862e-05;10 mA;
398.714;-0.0897522;109.4;548;-4.48608e-05;10 mA;
399.314;-0.0922546;110;551;-4.48914e-05;10 mA;
399.914;-0.094696;110.6;554;-4.51965e-05;10 mA;
400.514;-0.0971375;111.2;557;-4.49219e-05;10 mA;
401.114;-0.0994568;111.8;560;-4.51355e-05;10 mA;
401.714;-0.101776;112.4;563;-4.48608e-05;10 mA;WE(1).Potential < -0,1 V
401.914;-0.102539;112.6;564;-4.5105e-05;10 mA;WE(1).Potential < -0,1 V

File: CD-Mxene3-10Ag-CARGA.txt
Time (s);WE(1).Potential (V);Corrected time (s);Index;WE(1).Current (A);Current range;Cutoffs
65.9258;0.0739746;0;1;0.000107483;10 mA;WE(1).Potential > 0,85 V , WE(1).Potential > 0,85 V , WE(1).Potential > 0,85 V , WE(1).Potential > 0,85 V
66.1258;0.0947266;0.2;2;0.00010791;10 mA;
66.3258;0.111237;0.4;3;0.000107971;10 mA;
66.5258;0.125427;0.6;4;0.000108002;10 mA;
66.7258;0.137939;0.8;5;0.000108063;10 mA;
66.9258;0.149261;1;6;0.000107971;10 mA;
67.1258;0.161926;1.2;7;0.000108032;10 mA;
67.3258;0.171417;1.4;8;0.000108032;10 mA;
67.5258;0.180084;1.6;9;0.000108337;10 mA;
67.7258;0.188293;1.8;10;0.000108063;10 mA;
67.9258;0.196106;2;11;0.000108276;10 mA;
68.1258;0.203461;2.2;12;0.000108337;10 mA;
68.3258;0.21048;2.4;13;0.000108276;10 mA;
68.5258;0.217255;2.6;14;0.000108063;10 mA;
68.7258;0.223755;2.8;15;0.000108124;10 mA;
68.9258;0.230042;3;16;0.000108032;10 mA;
69.1258;0.236145;3.2;17;0.000108002;10 mA;
69.3258;0.242065;3.4;18;0.000108093;10 mA;
69.5258;0.247803;3.6;19;0.000108124;10 mA;
69.7258;0.253296;3.8;20;0.000108124;10 mA;
69.9258;0.258667;4;21;0.000108185;10 mA;
70.1258;0.264008;4.2;22;0.000108063;10 mA;
70.3258;0.269196;4.4;23;0.000107971;10 mA;
70.5258;0.274323;4.6;24;0.000107849;10 mA;
70.7258;0.279327;4.8;25;0.000108032;10 mA;
70.9258;0.284149;5;26;0.000108459;10 mA;
71.1258;0.28894;5.2;27;0.000107849;10 mA;
71.3258;0.293671;5.4;28;0.000108185;10 mA;
71.5258;0.298279;5.6;29;0.000108185;10 mA;
71.7258;0.302856;5.8;30;0.000108063;10 mA;
71.9258;0.307343;6;31;0.000108368;10 mA;
72.1258;0.311737;6.2;32;0.000108185;10 mA;
72.3258;0.31604;6.4;33;0.000108124;10 mA;
72.5258;0.3203125;6.6;34;0.000108032;10 mA;
72.7258;0.324524;6.8;35;0.000108276;10 mA;
72.9258;0.328705;7;36;0.000108246;10 mA;
73.1258;0.332794;7.2;37;0.000108185;10 mA;
73.3258;0.336853;7.4;38;0.000108276;10 mA;
73.5258;0.34079;7.6;39;0.00010849;10 mA;
73.7258;0.344727;7.8;40;0.000108398;10 mA;
73.9258;0.348602;8;41;0.000107941;10 mA;
74.1258;0.352386;8.2;42;0.000108185;10 mA;
74.3258;0.356171;8.4;43;0.000108459;10 mA;
74.5258;0.359894;8.6;44;0.000107849;10 mA;
74.7258;0.363586;8.8;45;0.000108276;10 mA;
74.9258;0.367279;9;46;0.000108398;10 mA;
75.1258;0.37088;9.2;47;0.000108154;10 mA;
75.3258;0.374481;9.4;48;0.000108276;10 mA;
75.5258;0.378021;9.6;49;0.000108215;10 mA;
75.7258;0.381531;9.8;50;0.000108032;10 mA;
75.9258;0.38501;10;51;0.000108337;10 mA;
76.1258;0.388489;10.2;52;0.000108215;10 mA;
76.3258;0.391937;10.4;53;0.000108002;10 mA;
76.5258;0.395325;10.6;54;0.000108337;10 mA;
76.7258;0.398743;10.8;55;0.000108276;10 mA;
76.9258;0.402069;11;56;0.000108154;10 mA;
77.1258;0.405457;11.2;57;0.000108246;10 mA;
77.3258;0.408783;11.4;58;0.000108093;10 mA;
77.5258;0.41214;11.6;59;0.00010791;10 mA;
77.7258;0.415497;11.8;60;0.000108154;10 mA;
77.9258;0.418762;12;61;0.000108337;10 mA;
78.1258;0.422089;12.2;62;0.00010788;10 mA;
78.3258;0.425354;12.4;63;0.000108185;10 mA;
78.5258;0.42868;12.6;64;0.000108276;10 mA;
78.7258;0.431946;12.8;65;0.000108429;10 mA;
78.9258;0.435242;13;66;0.000108459;10 mA;
79.1258;0.438538;13.2;67;0.000108337;10 mA;
79.3258;0.441864;13.4;68;0.000108246;10 mA;
79.5258;0.44516;13.6;69;0.000108185;10 mA;
79.7258;0.448425;13.8;70;0.000108185;10 mA;
79.9258;0.451691;14;71;0.000108154;10 mA;
80.1258;0.455017;14.2;72;0.000108337;10 mA;
80.3258;0.458313;14.4;73;0.000108154;10 mA;
80.5258;0.461639;14.6;74;0.000108246;10 mA;
80.7258;0.464966;14.8;75;0.00010849;10 mA;
80.9258;0.468292;15;76;0.000108093;10 mA;
81.1258;0.471588;15.2;77;0.000108429;10 mA;
81.3258;0.474945;15.4;78;0.000108307;10 mA;
81.5258;0.478302;15.6;79;0.000108368;10 mA;
81.7258;0.481628;15.8;80;0.000108307;10 mA;
81.9258;0.484985;16;81;0.000108307;10 mA;
82.1258;0.488373;16.2;82;0.000108398;10 mA;
82.3258;0.49176;16.4;83;0.000108673;10 mA;
82.5258;0.495178;16.6;84;0.00010849;10 mA;
82.7258;0.498566;16.8;85;0.000108368;10 mA;
82.9258;0.501709;17;86;0.000108124;10 mA;
83.1258;0.505371;17.2;87;0.000108398;10 mA;
83.3258;0.508728;17.4;88;0.000108246;10 mA;
83.5258;0.512085;17.6;89;0.000108429;10 mA;
83.7258;0.515747;17.8;90;0.000108368;10 mA;
83.9258;0.519104;18;91;0.000108521;10 mA;
84.1258;0.522766;18.2;92;0.000108307;10 mA;
84.3258;0.526123;18.4;93;0.000108276;10 mA;
84.5258;0.52948;18.6;94;0.000107941;10 mA;
84.7258;0.533142;18.8;95;0.000108337;10 mA;
84.9258;0.536804;19;96;0.000108368;10 mA;
85.1258;0.540161;19.2;97;0.000108063;10 mA;
85.3258;0.543823;19.4;98;0.000108948;10 mA;
85.5258;0.547485;19.6;99;0.000108643;10 mA;
85.7258;0.550842;19.8;100;0.000108337;10 mA;
85.9258;0.554504;20;101;0.000108093;10 mA;
86.1258;0.558167;20.2;102;0.000108582;10 mA;
86.3258;0.561829;20.4;103;0.000108276;10 mA;
86.5258;0.565491;20.6;104;0.000108215;10 mA;
86.7258;0.569153;20.8;105;0.000108093;10 mA;
86.9258;0.572815;21;106;0.000108185;10 mA;
87.1258;0.576477;21.2;107;0.000108398;10 mA;
87.3258;0.580139;21.4;108;0.000108765;10 mA;
87.5258;0.583801;21.6;109;0.000108704;10 mA;
87.7258;0.587463;21.8;110;0.000108337;10 mA;
87.9258;0.591431;22;111;0.000108612;10 mA;
88.1258;0.595093;22.2;112;0.000108643;10 mA;
88.3258;0.598755;22.4;113;0.000108337;10 mA;
88.5258;0.602417;22.6;114;0.000108215;10 mA;
88.7258;0.606384;22.8;115;0.000108276;10 mA;
88.9258;0.610046;23;116;0.000108215;10 mA;
89.1258;0.614014;23.2;117;0.00010849;10 mA;
89.3258;0.617676;23.4;118;0.000108765;10 mA;
89.5258;0.621643;23.6;119;0.000108307;10 mA;
89.7258;0.625305;23.8;120;0.000108276;10 mA;
89.9258;0.629272;24;121;0.000108826;10 mA;
90.1258;0.632324;24.2;122;0.000108673;10 mA;
90.3258;0.635986;24.4;123;0.000108154;10 mA;
90.5258;0.639954;24.6;124;0.000108521;10 mA;
90.7258;0.643616;24.8;125;0.000108368;10 mA;
90.9258;0.647583;25;126;0.000108307;10 mA;
91.1258;0.65155;25.2;127;0.000108337;10 mA;
91.3258;0.655518;25.4;128;0.000108307;10 mA;
91.5258;0.659485;25.6;129;0.000108582;10 mA;
91.7258;0.663452;25.8;130;0.000108368;10 mA;
91.9258;0.667419;26;131;0.000108551;10 mA;
92.1258;0.671387;26.2;132;0.000108582;10 mA;
92.3258;0.675354;26.4;133;0.000108398;10 mA;
92.5258;0.679321;26.6;134;0.000108307;10 mA;
92.7258;0.683289;26.8;135;0.000108368;10 mA;
92.9258;0.687256;27;136;0.000108002;10 mA;
93.1258;0.691223;27.2;137;0.000108429;10 mA;
93.3258;0.69519;27.4;138;0.000108643;10 mA;
93.5258;0.699463;27.6;139;0.000108673;10 mA;
93.7258;0.70343;27.8;140;0.00010849;10 mA;
93.9258;0.707397;28;141;0.00010849;10 mA;
94.1258;0.711365;28.2;142;0.000108398;10 mA;
94.3258;0.715637;28.4;143;0.000108337;10 mA;
94.5258;0.719604;28.6;144;0.000108551;10 mA;
94.7258;0.723572;28.8;145;0.000108185;10 mA;
94.9258;0.727844;29;146;0.000108429;10 mA;
95.1258;0.731812;29.2;147;0.000108337;10 mA;
95.3258;0.735779;29.4;148;0.000108246;10 mA;
95.5258;0.739746;29.6;149;0.000108643;10 mA;
95.7258;0.744019;29.8;150;0.000108734;10 mA;
95.9258;0.747986;30;151;0.000108521;10 mA;
96.1258;0.752258;30.2;152;0.000108276;10 mA;
96.3258;0.756226;30.4;153;0.000108032;10 mA;
96.5258;0.760193;30.6;154;0.000108459;10 mA;
96.7258;0.76416;30.8;155;0.000108276;10 mA;
96.9258;0.768433;31;156;0.000108368;10 mA;
97.1258;0.7724;31.2;157;0.000108154;10 mA;
97.3258;0.776367;31.4;158;0.000108368;10 mA;
97.5258;0.780334;31.6;159;0.000108582;10 mA;
97.7258;0.784302;31.8;160;0.000108612;10 mA;
97.9258;0.788269;32;161;0.000108826;10 mA;
98.1258;0.792236;32.2;162;0.000108459;10 mA;
98.3258;0.796204;32.4;163;0.000108521;10 mA;
98.5258;0.800171;32.6;164;0.000108337;10 mA;
98.7258;0.803833;32.8;165;0.000108521;10 mA;
98.9258;0.8078;33;166;0.00010849;10 mA;
99.1258;0.811768;33.2;167;0.000108215;10 mA;
99.3258;0.81543;33.4;168;0.000108429;10 mA;
99.5258;0.819397;33.6;169;0.000108826;10 mA;
99.7258;0.823059;33.8;170;0.000108643;10 mA;
99.9258;0.826721;34;171;0.000108643;10 mA;
100.126;0.830383;34.2;172;0.000108429;10 mA;
100.326;0.834045;34.4;173;0.000108582;10 mA;
100.526;0.837708;34.6;174;0.000108643;10 mA;
100.726;0.841064;34.8;175;0.000108551;10 mA;
100.926;0.844727;35;176;0.000108459;10 mA;
101.126;0.848083;35.2;177;0.000108337;10 mA;
101.326;0.85144;35.4;178;0.000108612;10 mA;WE(1).Potential > 0,85 V
101.526;0.854797;35.6;179;0.000108154;10 mA;WE(1).Potential > 0,85 V
101.726;0.857849;35.8;180;0.000108246;10 mA;WE(1).Potential > 0,85 V
101.926;0.861206;36;181;0.000108429;10 mA;WE(1).Potential > 0,85 V