Folder: Carga-Descarga (part 6)

File: CDMXene2-10Ag-1DESCARGA.txt
Time (s);WE(1).Potential (V);Corrected time (s);Index;WE(1).Current (A);Current range;Cutoffs
70.1005;0.757751;0;1;-8.57239e-05;10 mA;WE(1).Potential < -0.1 V . WE(1).Potential < -0.1 V . WE(1).Potential < -0.1 V . WE(1).Potential < -0.1 V
70.3005;0.718079;0.2;2;-8.67615e-05;10 mA;
70.5005;0.687561;0.4;3;-8.72498e-05;10 mA;
70.7005;0.661621;0.6;4;-8.99963e-05;10 mA;
70.9005;0.638733;0.8;5;-8.71582e-05;10 mA;
71.1005;0.617981;1;6;-8.72192e-05;10 mA;
71.3005;0.59906;1.2;7;-8.81958e-05;10 mA;
71.5005;0.581665;1.4;8;-8.73718e-05;10 mA;
71.7005;0.565186;1.6;9;-8.83789e-05;10 mA;
71.9005;0.549622;1.8;10;-8.84094e-05;10 mA;
72.1005;0.535278;2;11;-8.70361e-05;10 mA;
72.3005;0.521545;2.2;12;-8.77991e-05;10 mA;
72.5005;0.508423;2.4;13;-9.09729e-05;10 mA;
72.7005;0.496033;2.6;14;-8.79822e-05;10 mA;
72.9005;0.484192;2.8;15;-8.95691e-05;10 mA;
73.1005;0.4729;3;16;-8.79822e-05;10 mA;
73.3005;0.462128;3.2;17;-9.09729e-05;10 mA;
73.5005;0.451843;3.4;18;-8.91418e-05;10 mA;
73.7005;0.441986;3.6;19;-8.97217e-05;10 mA;
73.9005;0.432556;3.8;20;-9.05151e-05;10 mA;
74.1005;0.423553;4;21;-8.72803e-05;10 mA;
74.3005;0.414917;4.2;22;-8.80432e-05;10 mA;
74.5005;0.406647;4.4;23;-9.06372e-05;10 mA;
74.7005;0.398651;4.6;24;-9.09424e-05;10 mA;
74.9005;0.390961;4.8;25;-8.82263e-05;10 mA;
75.1005;0.383575;5;26;-8.74023e-05;10 mA;
75.3005;0.376434;5.2;27;-8.80737e-05;10 mA;
75.5005;0.369537;5.4;28;-8.87451e-05;10 mA;
75.7005;0.362823;5.6;29;-8.90198e-05;10 mA;
75.9005;0.356323;5.8;30;-8.8501e-05;10 mA;
76.1005;0.349945;6;31;-8.77075e-05;10 mA;
76.3005;0.34375;6.2;32;-9.07288e-05;10 mA;
76.5005;0.337677;6.4;33;-8.88977e-05;10 mA;
76.7005;0.331726;6.6;34;-8.9386e-05;10 mA;
76.9005;0.325928;6.8;35;-8.83179e-05;10 mA;
77.1005;0.32019;7;36;-8.75549e-05;10 mA;
77.3005;0.314514;7.2;37;-8.74329e-05;10 mA;
77.5005;0.308929;7.4;38;-8.85925e-05;10 mA;
77.7005;0.303375;7.6;39;-8.92334e-05;10 mA;
77.9005;0.297913;7.8;40;-8.69141e-05;10 mA;
78.1005;0.29248;8;41;-8.83789e-05;10 mA;
78.3005;0.287079;8.2;42;-8.93555e-05;10 mA;
78.5005;0.281708;8.4;43;-9.08813e-05;10 mA;
78.7005;0.276367;8.6;44;-8.72192e-05;10 mA;
78.9005;0.271057;8.8;45;-8.9325e-05;10 mA;
79.1005;0.265778;9;46;-9.15833e-05;10 mA;
79.3005;0.260498;9.2;47;-8.92944e-05;10 mA;
79.5005;0.255249;9.4;48;-8.6853e-05;10 mA;
79.7005;0.249969;9.6;49;-9.0271e-05;10 mA;
79.9005;0.24472;9.8;50;-8.89587e-05;10 mA;
80.1005;0.239471;10;51;-8.80432e-05;10 mA;
80.3005;0.234222;10.2;52;-8.89893e-05;10 mA;
80.5005;0.229004;10.4;53;-9.05151e-05;10 mA;
80.7005;0.223755;10.6;54;-8.80737e-05;10 mA;
80.9005;0.218536;10.8;55;-8.81958e-05;10 mA;
81.1005;0.213287;11;56;-8.91724e-05;10 mA;
81.3005;0.208099;11.2;57;-8.98743e-05;10 mA;
81.5005;0.20285;11.4;58;-8.98743e-05;10 mA;
81.7005;0.197632;11.6;59;-8.90198e-05;10 mA;
81.9005;0.192413;11.8;60;-8.92029e-05;10 mA;
82.1005;0.187164;12;61;-8.90503e-05;10 mA;
82.3005;0.181915;12.2;62;-9.02405e-05;10 mA;
82.5005;0.176636;12.4;63;-9.06677e-05;10 mA;
82.7005;0.171387;12.6;64;-8.88062e-05;10 mA;
82.9005;0.166077;12.8;65;-8.98743e-05;10 mA;
83.1005;0.160767;13;66;-8.77075e-05;10 mA;
83.3005;0.155426;13.2;67;-8.96606e-05;10 mA;
83.5005;0.150085;13.4;68;-8.88977e-05;10 mA;
83.7005;0.144714;13.6;69;-9.00269e-05;10 mA;
83.9005;0.139343;13.8;70;-8.90808e-05;10 mA;
84.1005;0.133972;14;71;-9.15527e-05;10 mA;
84.3005;0.128601;14.2;72;-9.05762e-05;10 mA;
84.5005;0.123199;14.4;73;-8.63953e-05;10 mA;
84.7005;0.117798;14.6;74;-8.91113e-05;10 mA;
84.9005;0.112396;14.8;75;-9.12476e-05;10 mA;
85.1005;0.107025;15;76;-9.03931e-05;10 mA;
85.3005;0.101654;15.2;77;-8.95081e-05;10 mA;
85.5005;0.096283;15.4;78;-8.64868e-05;10 mA;
85.7005;0.0909424;15.6;79;-9.01184e-05;10 mA;
85.9005;0.0856323;15.8;80;-9.08813e-05;10 mA;
86.1005;0.0802917;16;81;-8.77991e-05;10 mA;
86.3005;0.0750122;16.2;82;-9.00879e-05;10 mA;
86.5005;0.0697632;16.4;83;-8.99658e-05;10 mA;
86.7005;0.0645447;16.6;84;-9.02405e-05;10 mA;
86.9005;0.0593262;16.8;85;-8.95081e-05;10 mA;
87.1005;0.0541382;17;86;-8.92334e-05;10 mA;
87.3005;0.0489716;17.2;87;-9.07898e-05;10 mA;
87.5005;0.0438904;17.4;88;-9.06372e-05;10 mA;
87.7005;0.038858;17.6;89;-8.87756e-05;10 mA;
87.9005;0.0338501;17.8;90;-8.75854e-05;10 mA;
88.1005;0.0289368;18;91;-9.0271e-05;10 mA;
88.3005;0.0240479;18.2;92;-9.07593e-05;10 mA;
88.5005;0.0192352;18.4;93;-8.90503e-05;10 mA;
88.7005;0.0144653;18.6;94;-8.78601e-05;10 mA;
88.9005;0.00975952;18.8;95;-8.99963e-05;10 mA;
89.1005;0.00513;19;96;-8.76465e-05;10 mA;
89.3005;0.000585937;19.2;97;-8.74634e-05;10 mA;
89.5005;-0.00392151;19.4;98;-8.87146e-05;10 mA;
89.7005;-0.00834351;19.6;99;-8.86841e-05;10 mA;
89.9005;-0.0126831;19.8;100;-8.97522e-05;10 mA;
90.1005;-0.0169495;20;101;-8.87451e-05;10 mA;
90.3005;-0.0211365;20.2;102;-9.0271e-05;10 mA;
90.5005;-0.0252075;20.4;103;-8.97217e-05;10 mA;
90.7005;-0.0291748;20.6;104;-8.9325e-05;10 mA;
90.9005;-0.0330902;20.8;105;-8.9325e-05;10 mA;
91.1005;-0.0368744;21;106;-8.84705e-05;10 mA;
91.3005;-0.0405762;21.2;107;-8.95996e-05;10 mA;
91.5005;-0.0442261;21.4;108;-9.01794e-05;10 mA;
91.7005;-0.0477264;21.6;109;-9.03015e-05;10 mA;
91.9005;-0.0511475;21.8;110;-8.96606e-05;10 mA;
92.1005;-0.0544739;22;111;-8.89893e-05;10 mA;
92.3005;-0.0576782;22.2;112;-8.99963e-05;10 mA;
92.5005;-0.0607605;22.4;113;-8.93555e-05;10 mA;
92.7005;-0.0637512;22.6;114;-8.96301e-05;10 mA;
92.9005;-0.0666199;22.8;115;-8.6853e-05;10 mA;
93.1005;-0.0693665;23;116;-8.6853e-05;10 mA;
93.3005;-0.072052;23.2;117;-8.68225e-05;10 mA;
93.5005;-0.0746155;23.4;118;-8.74329e-05;10 mA;
93.7005;-0.0770569;23.6;119;-8.76465e-05;10 mA;
93.9005;-0.0793762;23.8;120;-9.07898e-05;10 mA;
94.1005;-0.0816345;24;121;-8.80432e-05;10 mA;
94.3005;-0.0838318;24.2;122;-8.75854e-05;10 mA;
94.5005;-0.0858765;24.4;123;-9.2926e-05;10 mA;
94.7005;-0.0878601;24.6;124;-8.78296e-05;10 mA;
94.9005;-0.0897217;24.8;125;-9.10034e-05;10 mA;
95.1005;-0.0915527;25;126;-8.94775e-05;10 mA;
95.3005;-0.0933228;25.2;127;-8.66089e-05;10 mA;
95.5005;-0.0949707;25.4;128;-9.10034e-05;10 mA;
95.7005;-0.0965881;25.6;129;-8.82874e-05;10 mA;
95.9005;-0.098114;25.8;130;-8.90503e-05;10 mA;
96.1005;-0.0995789;26;131;-8.81348e-05;10 mA;
96.3005;-0.100983;26.2;132;-8.92334e-05;10 mA;WE(1).Potential < -0.1 V
96.5005;-0.102356;26.4;133;-8.80432e-05;10 mA;WE(1).Potential < -0.1 V
96.7005;-0.103699;26.6;134;-8.84399e-05;10 mA;WE(1).Potential < -0.1 V
96.9005;-0.105011;26.8;135;-8.82263e-05;10 mA;WE(1).Potential < -0.1 V

File: CDMXene2-50Ag-1CARGA.txt
Time (s);WE(1).Potential (V);Corrected time (s);Index;WE(1).Current (A);Current range;Cutoffs
1.96421;0.362183;0;1;0.000476349;10 mA;
2.16421;0.41983;0.2;2;0.000475342;10 mA;
2.36421;0.467621;0.4;3;0.000474854;10 mA;
2.56421;0.514832;0.6;4;0.000475616;10 mA;
2.76421;0.562744;0.8;5;0.000476074;10 mA;
2.96421;0.610657;1;6;0.000476349;10 mA;
3.16421;0.657349;1.2;7;0.000476929;10 mA;
3.36421;0.70282;1.4;8;0.00047464;10 mA;
3.56421;0.74707;1.6;9;0.000476807;10 mA;
3.76421;0.789795;1.8;10;0.000476715;10 mA;
3.96421;0.831909;2;11;0.000475464;10 mA;
4.16421;0.872192;2.2;12;0.000476196;10 mA;WE(1).Potential > 0,85 V
4.36421;0.910645;2.4;13;0.000477356;10 mA;WE(1).Potential > 0,85 V
4.56421;0.94574;2.6;14;0.000475433;10 mA;WE(1).Potential > 0,85 V
4.76421;0.977783;2.8;15;0.000476257;10 mA;WE(1).Potential > 0,85 V

File: CDMXene2-50Ag-1DESCARGA.txt
Time (s);WE(1).Potential (V);Corrected time (s);Index;WE(1).Current (A);Current range;Cutoffs
4.96423;0.522461;0;1;-0.000465088;10 mA;
5.16423;0.404114;0.2;2;-0.000464905;10 mA;
5.36423;0.330414;0.4;3;-0.000463593;10 mA;
5.56423;0.273987;0.6;4;-0.000461121;10 mA;
5.76423;0.223785;0.8;5;-0.000461548;10 mA;
5.96423;0.175934;1;6;-0.000464539;10 mA;
6.16423;0.129059;1.2;7;-0.000462952;10 mA;
6.36423;0.0819092;1.4;8;-0.000466187;10 mA;
6.56423;0.0347961;1.6;9;-0.000464966;10 mA;
6.76423;-0.0111389;1.8;10;-0.000463501;10 mA;
6.96423;-0.055542;2;11;-0.000463806;10 mA;
7.16423;-0.0982666;2.2;12;-0.000464264;10 mA;
7.36423;-0.139008;2.4;13;-0.000465088;10 mA;WE(1).Potential < -0,1 V
7.56423;-0.17691;2.6;14;-0.000463104;10 mA;WE(1).Potential < -0,1 V
7.76423;-0.210876;2.8;15;-0.000461456;10 mA;WE(1).Potential < -0,1 V
7.96423;-0.240295;3;16;-0.000465118;10 mA;WE(1).Potential < -0,1 V

File: Mxene1-1Ag-CARGA2.txt
Time (s);WE(1).Potential (V);Corrected time (s);Index;WE(1).Current (A);Current range;Cutoffs
1024.4;0.30719;0;1;1.53503e-05;10 mA;WE(1).Potential > 0,85 V , WE(1).Potential > 0,85 V , WE(1).Potential > 0,85 V , WE(1).Potential > 0,85 V
1024.6;0.308136;0.2;2;1.50452e-05;10 mA;
1026;0.313904;1.6;9;1.53503e-05;10 mA;
1027.4;0.318512;3;16;1.53503e-05;10 mA;
1028.8;0.322571;4.4;23;1.55334e-05;10 mA;
1030.2;0.326324;5.8;30;1.56555e-05;10 mA;
1031.6;0.329834;7.2;37;1.54724e-05;10 mA;
1033;0.333221;8.6;44;1.55029e-05;10 mA;
1034.4;0.336487;10;51;1.54724e-05;10 mA;
1035.8;0.339691;11.4;58;1.52588e-05;10 mA;
1037.2;0.342834;12.8;65;1.55334e-05;10 mA;
1038.6;0.345886;14.2;72;1.58081e-05;10 mA;
1040;0.348816;15.6;79;1.51978e-05;10 mA;
1041.4;0.351685;17;86;1.5564e-05;10 mA;
1042.8;0.354553;18.4;93;1.53809e-05;10 mA;
1044.2;0.357422;19.8;100;1.53503e-05;10 mA;
1045.6;0.360229;21.2;107;1.54724e-05;10 mA;
1047;0.363007;22.6;114;1.5625e-05;10 mA;
1048.4;0.365814;24;121;1.55029e-05;10 mA;
1049.8;0.368652;25.4;128;1.54114e-05;10 mA;
1051.2;0.37146;26.8;135;1.57776e-05;10 mA;
1052.6;0.374268;28.2;142;1.55029e-05;10 mA;
1054;0.377045;29.6;149;1.5625e-05;10 mA;
1055.4;0.379791;31;156;1.5686e-05;10 mA;
1056.8;0.382477;32.4;163;1.55334e-05;10 mA;
1058.2;0.385223;33.8;170;1.53198e-05;10 mA;
1059.6;0.388;35.2;177;1.55945e-05;10 mA;
1061;0.390747;36.6;184;1.53198e-05;10 mA;
1062.4;0.393463;38;191;1.57776e-05;10 mA;
1063.8;0.39621;39.4;198;1.54419e-05;10 mA;
1065.2;0.398926;40.8;205;1.5625e-05;10 mA;
1066.6;0.401672;42.2;212;1.54114e-05;10 mA;
1068;0.404449;43.6;219;1.58691e-05;10 mA;
1069.4;0.407257;45;226;1.52283e-05;10 mA;
1070.8;0.410034;46.4;233;1.54419e-05;10 mA;
1072.2;0.412811;47.8;240;1.55029e-05;10 mA;
1073.6;0.415588;49.2;247;1.55945e-05;10 mA;
1075;0.418396;50.6;254;1.55334e-05;10 mA;
1076.4;0.421295;52;261;1.51978e-05;10 mA;
1077.8;0.424103;53.4;268;1.58386e-05;10 mA;
1079.2;0.427063;54.8;275;1.54724e-05;10 mA;
1080.6;0.429962;56.2;282;1.53809e-05;10 mA;
1082;0.432922;57.6;289;1.52893e-05;10 mA;
1083.4;0.435852;59;296;1.52893e-05;10 mA;
1084.8;0.438873;60.4;303;1.54724e-05;10 mA;
1086.2;0.441895;61.8;310;1.55945e-05;10 mA;
1087.6;0.444977;63.2;317;1.5625e-05;10 mA;
1089;0.447998;64.6;324;1.55334e-05;10 mA;
1090.4;0.45108;66;331;1.55945e-05;10 mA;
1091.8;0.454102;67.4;338;1.57166e-05;10 mA;
1093.2;0.457214;68.8;345;1.54419e-05;10 mA;
1094.6;0.460327;70.2;352;1.53198e-05;10 mA;
1096;0.46347;71.6;359;1.55334e-05;10 mA;
1097.4;0.466644;73;366;1.5564e-05;10 mA;
1098.8;0.469788;74.4;373;1.58997e-05;10 mA;
1100.2;0.473022;75.8;380;1.52588e-05;10 mA;
1101.6;0.476257;77.2;387;1.58997e-05;10 mA;
1103;0.479553;78.6;394;1.55945e-05;10 mA;
1104.4;0.482788;80;401;1.5686e-05;10 mA;
1105.8;0.486053;81.4;408;1.55945e-05;10 mA;
1107.2;0.489349;82.8;415;1.58081e-05;10 mA;
1108.6;0.492645;84.2;422;1.5564e-05;10 mA;
1110;0.49588;85.6;429;1.56555e-05;10 mA;
1111.4;0.499176;87;436;1.52588e-05;10 mA;
1112.8;0.502319;88.4;443;1.52893e-05;10 mA;
1114.2;0.505676;89.8;450;1.54114e-05;10 mA;
1115.6;0.509033;91.2;457;1.54724e-05;10 mA;
1117;0.51239;92.6;464;1.5564e-05;10 mA;
1118.4;0.515747;94;471;1.5564e-05;10 mA;
1119.8;0.519104;95.4;478;1.54724e-05;10 mA;
1121.2;0.522766;96.8;485;1.5625e-05;10 mA;
1122.6;0.526123;98.2;492;1.55945e-05;10 mA;
1124;0.52948;99.6;499;1.57166e-05;10 mA;
1125.4;0.532837;101;506;1.55334e-05;10 mA;
1126.8;0.536499;102.4;513;1.5564e-05;10 mA;
1128.2;0.539856;103.8;520;1.55029e-05;10 mA;
1129.6;0.543518;105.2;527;1.5564e-05;10 mA;
1131;0.546875;106.6;534;1.5564e-05;10 mA;
1132.4;0.550232;108;541;1.55029e-05;10 mA;
1133.8;0.553894;109.4;548;1.59607e-05;10 mA;
1135.2;0.557556;110.8;555;1.54114e-05;10 mA;
1136.6;0.560913;112.2;562;1.58386e-05;10 mA;
1138;0.564575;113.6;569;1.55029e-05;10 mA;
1139.4;0.568237;115;576;1.5564e-05;10 mA;
1140.8;0.571594;116.4;583;1.56555e-05;10 mA;
1142.2;0.574951;117.8;590;1.58997e-05;10 mA;
1143.6;0.578613;119.2;597;1.58081e-05;10 mA;
1145;0.58197;120.6;604;1.54114e-05;10 mA;
1146.4;0.585327;122;611;1.5564e-05;10 mA;
1147.8;0.588989;123.4;618;1.56555e-05;10 mA;
1149.2;0.592651;124.8;625;1.57166e-05;10 mA;
1150.6;0.596008;126.2;632;1.57166e-05;10 mA;
1152;0.599365;127.6;639;1.52893e-05;10 mA;
1153.4;0.603027;129;646;1.53809e-05;10 mA;
1154.8;0.606384;130.4;653;1.58081e-05;10 mA;
1156.2;0.609741;131.8;660;1.5564e-05;10 mA;
1157.6;0.613403;133.2;667;1.55029e-05;10 mA;
1159;0.61676;134.6;674;1.5625e-05;10 mA;
1160.4;0.620117;136;681;1.55945e-05;10 mA;
1161.8;0.623474;137.4;688;1.59302e-05;10 mA;
1163.2;0.626831;138.8;695;1.57776e-05;10 mA;
1164.6;0.630188;140.2;702;1.54114e-05;10 mA;
1166;0.633545;141.6;709;1.5625e-05;10 mA;
1167.4;0.636902;143;716;1.55945e-05;10 mA;
1168.8;0.640259;144.4;723;1.56555e-05;10 mA;
1170.2;0.643616;145.8;730;1.55334e-05;10 mA;
1171.6;0.646973;147.2;737;1.57166e-05;10 mA;
1173;0.650024;148.6;744;1.58081e-05;10 mA;
1174.4;0.653381;150;751;1.59607e-05;10 mA;
1175.8;0.656738;151.4;758;1.58386e-05;10 mA;
1177.2;0.65979;152.8;765;1.58081e-05;10 mA;
1178.6;0.663147;154.2;772;1.5564e-05;10 mA;
1180;0.666504;155.6;779;1.58386e-05;10 mA;
1181.4;0.669556;157;786;1.57471e-05;10 mA;
1182.8;0.672913;158.4;793;1.5686e-05;10 mA;
1184.2;0.675964;159.8;800;1.57776e-05;10 mA;
1185.6;0.679016;161.2;807;1.55334e-05;10 mA;
1187;0.682373;162.6;814;1.54114e-05;10 mA;
1188.4;0.685425;164;821;1.57166e-05;10 mA;
1189.8;0.688477;165.4;828;1.5625e-05;10 mA;
1191.2;0.691528;166.8;835;1.5625e-05;10 mA;
1192.6;0.69458;168.2;842;1.5564e-05;10 mA;
1194;0.697632;169.6;849;1.54419e-05;10 mA;
1195.4;0.700684;171;856;1.53809e-05;10 mA;
1196.8;0.703735;172.4;863;1.58386e-05;10 mA;
1198.2;0.706482;173.8;870;1.53503e-05;10 mA;
1199.6;0.709534;175.2;877;1.58691e-05;10 mA;
1201;0.712585;176.6;884;1.5625e-05;10 mA;
1202.4;0.715637;178;891;1.58081e-05;10 mA;
1203.8;0.718384;179.4;898;1.55945e-05;10 mA;
1205.2;0.721741;180.8;905;1.5686e-05;10 mA;
1206.6;0.724487;182.2;912;1.61133e-05;10 mA;
1208;0.727234;183.6;919;1.5625e-05;10 mA;
1209.4;0.72998;185;926;1.54419e-05;10 mA;
1210.8;0.732727;186.4;933;1.5564e-05;10 mA;
1212.2;0.735779;187.8;940;1.58691e-05;10 mA;
1213.6;0.73822;189.2;947;1.57166e-05;10 mA;
1215;0.740967;190.6;954;1.5625e-05;10 mA;
1216.4;0.743713;192;961;1.58081e-05;10 mA;
1217.8;0.74646;193.4;968;1.56555e-05;10 mA;
1219.2;0.748901;194.8;975;1.59302e-05;10 mA;
1220.6;0.751648;196.2;982;1.5564e-05;10 mA;
1222;0.754089;197.6;989;1.55334e-05;10 mA;
1223.4;0.756531;199;996;1.5564e-05;10 mA;
1224.8;0.758972;200.4;1003;1.57471e-05;10 mA;
1226.2;0.761414;201.8;1010;1.5686e-05;10 mA;
1227.6;0.763855;203.2;1017;1.59302e-05;10 mA;
1229;0.766296;204.6;1024;1.5686e-05;10 mA;
1230.4;0.768738;206;1031;1.5625e-05;10 mA;
1231.8;0.771179;207.4;1038;1.53503e-05;10 mA;
1233.2;0.773621;208.8;1045;1.55945e-05;10 mA;
1234.6;0.775757;210.2;1052;1.58386e-05;10 mA;
1236;0.778198;211.6;1059;1.53809e-05;10 mA;
1237.4;0.780334;213;1066;1.53809e-05;10 mA;
1238.8;0.782166;214.4;1073;1.59607e-05;10 mA;
1240.2;0.784302;215.8;1080;1.53198e-05;10 mA;
1241.6;0.786438;217.2;1087;1.58386e-05;10 mA;
1243;0.788574;218.6;1094;1.5686e-05;10 mA;
1244.4;0.79071;220;1101;1.58386e-05;10 mA;
1245.8;0.792847;221.4;1108;1.55945e-05;10 mA;
1247.2;0.794678;222.8;1115;1.5564e-05;10 mA;
1248.6;0.796509;224.2;1122;1.57776e-05;10 mA;
1250;0.79834;225.6;1129;1.5625e-05;10 mA;
1251.4;0.800171;227;1136;1.5686e-05;10 mA;
1252.8;0.802002;228.4;1143;1.56555e-05;10 mA;
1254.2;0.803833;229.8;1150;1.62048e-05;10 mA;
1255.6;0.805359;231.2;1157;1.5625e-05;10 mA;
1257;0.80719;232.6;1164;1.55945e-05;10 mA;
1258.4;0.808716;234;1171;1.5564e-05;10 mA;
1259.8;0.810242;235.4;1178;1.59607e-05;10 mA;
1261.2;0.811768;236.8;1185;1.59607e-05;10 mA;
1262.6;0.813599;238.2;1192;1.61133e-05;10 mA;
1264;0.815125;239.6;1199;1.60522e-05;10 mA;
1265.4;0.81665;241;1206;1.58386e-05;10 mA;
1266.8;0.817871;242.4;1213;1.54724e-05;10 mA;
1268.2;0.819397;243.8;1220;1.52588e-05;10 mA;
1269.6;0.820923;245.2;1227;1.57471e-05;10 mA;
1271;0.822144;246.6;1234;1.58997e-05;10 mA;
1272.4;0.823669;248;1241;1.58386e-05;10 mA;
1273.8;0.82489;249.4;1248;1.58997e-05;10 mA;
1275.2;0.826416;250.8;1255;1.59302e-05;10 mA;
1276.6;0.827637;252.2;1262;1.5625e-05;10 mA;
1278;0.828857;253.6;1269;1.5564e-05;10 mA;
1279.4;0.830078;255;1276;1.57776e-05;10 mA;
1280.8;0.831299;256.4;1283;1.57776e-05;10 mA;
1282.2;0.83252;257.8;1290;1.61438e-05;10 mA;
1283.6;0.833435;259.2;1297;1.61743e-05;10 mA;
1285;0.834656;260.6;1304;1.5686e-05;10 mA;
1286.4;0.835876;262;1311;1.58691e-05;10 mA;
1287.8;0.836792;263.4;1318;1.55334e-05;10 mA;
1289.2;0.838013;264.8;1325;1.59302e-05;10 mA;
1290.6;0.838928;266.2;1332;1.54419e-05;10 mA;
1292;0.840149;267.6;1339;1.5686e-05;10 mA;
1293.4;0.841064;269;1346;1.58386e-05;10 mA;
1294.8;0.842285;270.4;1353;1.54724e-05;10 mA;
1296.2;0.842896;271.8;1360;1.58691e-05;10 mA;
1297.6;0.843811;273.2;1367;1.58691e-05;10 mA;
1299;0.844727;274.6;1374;1.58081e-05;10 mA;
1300.4;0.845642;276;1381;1.57166e-05;10 mA;
1301.8;0.846558;277.4;1388;1.5625e-05;10 mA;
1303.2;0.847473;278.8;1395;1.56555e-05;10 mA;
1304.6;0.848083;280.2;1402;1.55945e-05;10 mA;
1306;0.848999;281.6;1409;1.57166e-05;10 mA;
1307.4;0.849915;283;1416;1.60217e-05;10 mA;
1308.4;0.850525;284;1421;1.54419e-05;10 mA;WE(1).Potential > 0,85 V