Folder: Carga-Descarga (part 5)

File: CDMXene2-1Ag-1DESCARGA.txt
Time (s);WE(1).Potential (V);Corrected time (s);Index;WE(1).Current (A);Current range
144.46;0.837402;0;1;-4.21143e-06;10 mA
147.26;0.794983;2.8;15;-2.01416e-06;10 mA
150.06;0.770874;5.6;29;-1.70898e-06;10 mA
152.86;0.751343;8.4;43;-1.7395e-06;10 mA
155.66;0.734253;11.2;57;-2.62451e-06;10 mA
158.46;0.718689;14;71;-4.69971e-06;10 mA
161.26;0.704041;16.8;85;-3.20435e-06;10 mA
164.06;0.690918;19.6;99;-1.19019e-06;10 mA
166.86;0.678101;22.4;113;-5.61523e-06;10 mA
169.66;0.666504;25.2;127;-3.35693e-06;10 mA
172.46;0.655823;28;141;-4.63867e-06;10 mA
175.26;0.645752;30.8;155;-2.96021e-06;10 mA
178.06;0.635681;33.6;169;-1.5564e-06;10 mA
180.86;0.626221;36.4;183;-5.18799e-06;10 mA
183.66;0.617676;39.2;197;-2.68555e-06;10 mA
186.46;0.608521;42;211;-2.04468e-06;10 mA
189.26;0.599976;44.8;225;-2.0752e-06;10 mA
192.06;0.591736;47.6;239;-1.58691e-06;10 mA
194.86;0.583801;50.4;253;-3.41797e-06;10 mA
197.66;0.576172;53.2;267;-2.22778e-06;10 mA
200.46;0.568542;56;281;-1.83105e-06;10 mA
203.26;0.561218;58.8;295;-3.72314e-06;10 mA
206.06;0.554199;61.6;309;-1.5564e-06;10 mA
208.86;0.547485;64.4;323;-2.65503e-06;10 mA
211.66;0.540771;67.2;337;-4.63867e-06;10 mA
214.46;0.534668;70;351;-1.83105e-06;10 mA
217.26;0.528259;72.8;365;-2.0752e-06;10 mA
220.06;0.522156;75.6;379;-4.27246e-06;10 mA
222.86;0.515747;78.4;393;-1.67847e-06;10 mA
225.66;0.509644;81.2;407;-2.47192e-06;10 mA
228.46;0.50415;84;421;-5.12695e-06;10 mA
231.26;0.498749;86.8;435;-2.74658e-06;10 mA
234.06;0.493286;89.6;449;-3.20435e-06;10 mA
236.86;0.488068;92.4;463;-1.46484e-06;10 mA
239.66;0.483124;95.2;477;-1.80054e-06;10 mA
242.46;0.478424;98;491;-5.79834e-07;10 mA
245.26;0.473907;100.8;505;-2.38037e-06;10 mA
248.06;0.469543;103.6;519;-1.12915e-06;10 mA
250.86;0.465332;106.4;533;-3.02124e-06;10 mA
253.66;0.461243;109.2;547;-3.41797e-06;10 mA
256.46;0.457184;112;561;-4.15039e-06;10 mA
259.26;0.453369;114.8;575;-3.38745e-06;10 mA
262.06;0.449585;117.6;589;-3.35693e-06;10 mA
264.86;0.445892;120.4;603;-1.70898e-06;10 mA
267.66;0.442017;123.2;617;-4.15039e-06;10 mA
270.46;0.438263;126;631;-2.74658e-06;10 mA
273.26;0.434723;128.8;645;-3.69263e-06;10 mA
276.06;0.431305;131.6;659;-3.41797e-06;10 mA
278.86;0.427856;134.4;673;-3.11279e-06;10 mA
281.66;0.4245;137.2;687;-3.20435e-06;10 mA
284.46;0.421265;140;701;-4.02832e-06;10 mA
287.26;0.41806;142.8;715;-3.35693e-06;10 mA
290.06;0.415039;145.6;729;-5.12695e-06;10 mA
292.86;0.412018;148.4;743;-7.17163e-06;10 mA
295.66;0.409149;151.2;757;-3.02124e-06;10 mA
298.46;0.406372;154;771;-1.19019e-06;10 mA
301.26;0.403442;156.8;785;-1.64795e-06;10 mA
304.06;0.400513;159.6;799;-1.7395e-06;10 mA
306.86;0.397552;162.4;813;-2.68555e-06;10 mA
309.66;0.394775;165.2;827;-4.69971e-06;10 mA
312.46;0.392242;168;841;-5.27954e-06;10 mA
315.26;0.389679;170.8;855;-4.05884e-06;10 mA
318.06;0.387024;173.6;869;-9.76562e-07;10 mA
320.86;0.384552;176.4;883;-5.12695e-06;10 mA
323.66;0.38208;179.2;897;-2.7771e-06;10 mA
326.46;0.379578;182;911;-5.0354e-06;10 mA
329.26;0.377136;184.8;925;-3.23486e-06;10 mA
332.06;0.374847;187.6;939;-2.28882e-06;10 mA
334.86;0.372559;190.4;953;-3.23486e-06;10 mA
337.66;0.370422;193.2;967;-2.89917e-06;10 mA
340.46;0.368134;196;981;-2.74658e-06;10 mA
343.26;0.365845;198.8;995;-1.25122e-06;10 mA
346.06;0.363708;201.6;1009;-4.82178e-06;10 mA
348.86;0.36142;204.4;1023;-2.83813e-06;10 mA
351.66;0.359131;207.2;1037;-4.63867e-06;10 mA
354.46;0.356842;210;1051;-3.20435e-06;10 mA
357.26;0.354553;212.8;1065;-5.5542e-06;10 mA
360.06;0.352295;215.6;1079;-5.21851e-06;10 mA
362.86;0.350067;218.4;1093;-4.82178e-06;10 mA
365.66;0.347961;221.2;1107;-3.93677e-06;10 mA
368.46;0.345917;224;1121;-3.96729e-06;10 mA
371.26;0.344055;226.8;1135;-3.75366e-06;10 mA
374.06;0.342163;229.6;1149;-2.71606e-06;10 mA
376.86;0.340393;232.4;1163;-4.63867e-06;10 mA
379.66;0.338531;235.2;1177;-1.61743e-06;10 mA
382.46;0.336517;238;1191;-9.76562e-07;10 mA
385.26;0.334412;240.8;1205;-5.31006e-06;10 mA
388.06;0.332336;243.6;1219;-2.86865e-06;10 mA
390.86;0.330383;246.4;1233;-4.11987e-06;10 mA
393.66;0.328522;249.2;1247;-4.39453e-06;10 mA
396.46;0.326752;252;1261;-2.86865e-06;10 mA
399.26;0.324677;254.8;1275;-3.50952e-06;10 mA
402.06;0.322662;257.6;1289;-1.09863e-06;10 mA
404.86;0.320709;260.4;1303;-6.43921e-06;10 mA
407.66;0.318848;263.2;1317;-5.46265e-06;10 mA
410.46;0.316986;266;1331;-5.34058e-06;10 mA
413.26;0.315186;268.8;1345;-1.80054e-06;10 mA
416.06;0.313202;271.6;1359;-1.70898e-06;10 mA
418.86;0.311279;274.4;1373;-5.64575e-06;10 mA
421.66;0.309387;277.2;1387;-1.7395e-06;10 mA
424.46;0.307709;280;1401;-1.09863e-06;10 mA
427.26;0.305908;282.8;1415;-3.69263e-06;10 mA
430.06;0.303986;285.6;1429;-7.32422e-07;10 mA
432.86;0.301971;288.4;1443;-2.2583e-06;10 mA
435.66;0.299988;291.2;1457;-4.94385e-06;10 mA
438.46;0.298126;294;1471;-1.34277e-06;10 mA
441.26;0.296265;296.8;1485;-1.09863e-06;10 mA
444.06;0.294434;299.6;1499;-5.34058e-06;10 mA
446.86;0.292633;302.4;1513;-2.65503e-06;10 mA
449.66;0.290894;305.2;1527;-2.13623e-06;10 mA
452.46;0.289124;308;1541;-3.2959e-06;10 mA
455.26;0.287476;310.8;1555;-5.15747e-06;10 mA
458.06;0.285889;313.6;1569;-1.52588e-06;10 mA
460.86;0.284088;316.4;1583;-3.78418e-06;10 mA
463.66;0.282318;319.2;1597;-1.46484e-06;10 mA
466.46;0.280548;322;1611;-5.52368e-06;10 mA
469.26;0.278778;324.8;1625;-1.25122e-06;10 mA
472.06;0.2771;327.6;1639;-2.10571e-06;10 mA
474.86;0.27536;330.4;1653;-3.23486e-06;10 mA
477.66;0.273712;333.2;1667;-4.88281e-06;10 mA
480.46;0.272003;336;1681;-1.0376e-06;10 mA
483.26;0.270203;338.8;1695;-3.8147e-06;10 mA
486.06;0.268463;341.6;1709;-1.86157e-06;10 mA
488.86;0.266846;344.4;1723;-2.71606e-06;10 mA
491.66;0.265228;347.2;1737;-2.44141e-06;10 mA
494.46;0.263672;350;1751;-1.00708e-06;10 mA
497.26;0.262177;352.8;1765;-1.98364e-06;10 mA
500.06;0.26062;355.6;1779;-4.36401e-06;10 mA
502.86;0.259003;358.4;1793;-4.15039e-06;10 mA
505.66;0.257355;361.2;1807;-1.58691e-06;10 mA
508.46;0.255859;364;1821;-6.68335e-06;10 mA
511.26;0.254242;366.8;1835;-1.40381e-06;10 mA
514.06;0.252686;369.6;1849;-3.17383e-06;10 mA
516.86;0.251099;372.4;1863;-6.10352e-06;10 mA
519.66;0.249542;375.2;1877;-4.69971e-06;10 mA
522.46;0.248322;378;1891;-4.18091e-06;10 mA
525.26;0.246765;380.8;1905;-5.31006e-06;10 mA
528.06;0.2453;383.6;1919;-2.01416e-06;10 mA
530.86;0.243744;386.4;1933;-4.85229e-06;10 mA
533.66;0.2421875;389.2;1947;-2.83813e-06;10 mA
536.46;0.24054;392;1961;-1.95313e-06;10 mA
539.26;0.239105;394.8;1975;-4.57764e-06;10 mA
542.06;0.237701;397.6;1989;-4.39453e-06;10 mA
544.86;0.236237;400.4;2003;-1.86157e-06;10 mA
547.66;0.234772;403.2;2017;-4.5166e-06;10 mA
550.46;0.233276;406;2031;-7.62939e-07;10 mA
553.26;0.231995;408.8;2045;-2.80762e-06;10 mA
556.06;0.230591;411.6;2059;-4.88281e-06;10 mA
558.86;0.229279;414.4;2073;-2.50244e-06;10 mA
561.66;0.227966;417.2;2087;-2.04468e-06;10 mA
564.46;0.226593;420;2101;-1.67847e-06;10 mA
567.26;0.22525;422.8;2115;-3.50952e-06;10 mA
570.06;0.223816;425.6;2129;-2.86865e-06;10 mA
572.86;0.222565;428.4;2143;-3.93677e-06;10 mA
575.66;0.221344;431.2;2157;-5.76782e-06;10 mA
578.46;0.219849;434;2171;-2.56348e-06;10 mA
581.26;0.218536;436.8;2185;-5.06592e-06;10 mA
584.06;0.217438;439.6;2199;-4.42505e-06;10 mA
586.86;0.21637;442.4;2213;-2.89917e-06;10 mA
589.66;0.21521;445.2;2227;-3.32642e-06;10 mA
592.46;0.21402;448;2241;-3.60107e-06;10 mA
595.26;0.21283;450.8;2255;-4.97437e-06;10 mA
598.06;0.211884;453.6;2269;-5.06592e-06;10 mA
600.86;0.210876;456.4;2283;-2.59399e-06;10 mA
603.66;0.209747;459.2;2297;-2.83813e-06;10 mA
606.46;0.208557;462;2311;-1.80054e-06;10 mA
609.26;0.207458;464.8;2325;-1.5564e-06;10 mA
612.06;0.206451;467.6;2339;-2.74658e-06;10 mA
614.86;0.205231;470.4;2353;-3.17383e-06;10 mA
617.66;0.203857;473.2;2367;-4.82178e-06;10 mA
620.46;0.202545;476;2381;-4.82178e-06;10 mA
623.26;0.201385;478.8;2395;-4.15039e-06;10 mA
626.06;0.200226;481.6;2409;-5.34058e-06;10 mA
628.86;0.199158;484.4;2423;-3.05176e-08;10 mA
631.66;0.19812;487.2;2437;-2.68555e-06;10 mA
634.46;0.197021;490;2451;-1.77002e-06;10 mA
637.26;0.195953;492.8;2465;-4.76074e-06;10 mA
640.06;0.194946;495.6;2479;-3.23486e-06;10 mA
642.86;0.193909;498.4;2493;-3.60107e-06;10 mA
645.66;0.192902;501.2;2507;-3.14331e-06;10 mA
648.46;0.191833;504;2521;-3.2959e-06;10 mA
651.26;0.190735;506.8;2535;-3.26538e-06;10 mA
654.06;0.189972;509.6;2549;-3.479e-06;10 mA
656.86;0.189056;512.4;2563;-4.42505e-06;10 mA
659.66;0.188232;515.2;2577;-4.82178e-06;10 mA
662.46;0.187561;518;2591;-2.92969e-06;10 mA
665.26;0.186859;520.8;2605;-1.12915e-06;10 mA
668.06;0.186127;523.6;2619;-3.11279e-06;10 mA
670.86;0.185303;526.4;2633;-5.15747e-06;10 mA
673.66;0.18454;529.2;2647;-4.30298e-06;10 mA
676.46;0.183563;532;2661;-4.27246e-06;10 mA
679.26;0.18277;534.8;2675;-3.479e-06;10 mA
682.06;0.181976;537.6;2689;-4.08936e-06;10 mA
684.86;0.181122;540.4;2703;-1.7395e-06;10 mA
687.66;0.180481;543.2;2717;-1.12915e-06;10 mA
690.46;0.179626;546;2731;-5.06592e-06;10 mA
693.26;0.178864;548.8;2745;-5.61523e-06;10 mA
696.06;0.177948;551.6;2759;-3.50952e-06;10 mA
698.86;0.177063;554.4;2773;-2.2583e-06;10 mA
701.66;0.176331;557.2;2787;-5.67627e-06;10 mA
704.46;0.175812;560;2801;-5.76782e-06;10 mA
707.26;0.17511;562.8;2815;-5.37109e-06;10 mA
710.06;0.174622;565.6;2829;-3.84521e-06;10 mA
712.86;0.17392;568.4;2843;-2.47192e-06;10 mA
715.66;0.173309;571.2;2857;-5.15747e-06;10 mA
718.46;0.172607;574;2871;-1.52588e-06;10 mA
721.26;0.172028;576.8;2885;-1.70898e-06;10 mA
724.06;0.171478;579.6;2899;-5.12695e-06;10 mA
726.86;0.170807;582.4;2913;-5.18799e-06;10 mA
729.66;0.170074;585.2;2927;-4.60815e-06;10 mA
732.46;0.169342;588;2941;-5.79834e-06;10 mA
735.26;0.168488;590.8;2955;-2.7771e-06;10 mA
738.06;0.167755;593.6;2969;-8.23975e-07;10 mA
740.86;0.166901;596.4;2983;-4.79126e-06;10 mA
743.66;0.166016;599.2;2997;-2.92969e-06;10 mA
744.26;0.165833;599.8;3000;-1.64795e-06;10 mA

File: CDMXene2-10Ag-1CARGA.txt
Time (s);WE(1).Potential (V);Corrected time (s);Index;WE(1).Current (A);Current range;Cutoffs
1.94421;0.286346;0;1;0.000100861;10 mA;
2.14421;0.302094;0.2;2;0.000101013;10 mA;
2.34421;0.31488;0.4;3;0.000100159;10 mA;
2.54421;0.325928;0.6;4;9.86633e-05;10 mA;
2.74421;0.335846;0.8;5;0.000102539;10 mA;
2.94421;0.344971;1;6;0.000100769;10 mA;
3.14421;0.353577;1.2;7;0.000102356;10 mA;
3.34421;0.361755;1.4;8;9.79614e-05;10 mA;
3.54421;0.369598;1.6;9;9.85718e-05;10 mA;
3.74421;0.377258;1.8;10;0.00010141;10 mA;
3.94421;0.384705;2;11;0.000101044;10 mA;
4.14421;0.392059;2.2;12;9.90295e-05;10 mA;
4.34421;0.399323;2.4;13;0.000100037;10 mA;
4.54421;0.406555;2.6;14;9.90601e-05;10 mA;
4.74421;0.413727;2.8;15;0.000100128;10 mA;
4.94421;0.420959;3;16;0.000100861;10 mA;
5.14421;0.428192;3.2;17;9.96094e-05;10 mA;
5.34421;0.435455;3.4;18;0.000100006;10 mA;
5.54421;0.442749;3.6;19;0.00010144;10 mA;
5.74421;0.450104;3.8;20;0.000100769;10 mA;
5.94421;0.45755;4;21;9.92737e-05;10 mA;
6.14421;0.465027;4.2;22;0.000100616;10 mA;
6.34421;0.472565;4.4;23;9.88159e-05;10 mA;
6.54421;0.480164;4.6;24;9.82971e-05;10 mA;
6.74421;0.487823;4.8;25;9.96704e-05;10 mA;
6.94421;0.495544;5;26;0.000100708;10 mA;
7.14421;0.503235;5.2;27;9.9823e-05;10 mA;
7.34421;0.511169;5.4;28;0.000100952;10 mA;
7.54421;0.518799;5.6;29;0.000102112;10 mA;
7.74421;0.526733;5.8;30;0.00010022;10 mA;
7.94421;0.534668;6;31;0.000100311;10 mA;
8.14421;0.542603;6.2;32;0.000102814;10 mA;
8.34421;0.550537;6.4;33;0.00010199;10 mA;
8.54421;0.558472;6.6;34;9.8938e-05;10 mA;
8.74421;0.566711;6.8;35;0.000100159;10 mA;
8.94421;0.574646;7;36;9.88159e-05;10 mA;
9.14421;0.582581;7.2;37;0.000102448;10 mA;
9.34421;0.59082;7.4;38;9.92126e-05;10 mA;
9.54421;0.598755;7.6;39;0.000102936;10 mA;
9.74421;0.606689;7.8;40;0.000101898;10 mA;
9.94421;0.614624;8;41;9.91211e-05;10 mA;
10.1442;0.622864;8.2;42;0.000100006;10 mA;
10.3442;0.630798;8.4;43;9.95178e-05;10 mA;
10.5442;0.638733;8.6;44;9.89075e-05;10 mA;
10.7442;0.646667;8.8;45;0.000100433;10 mA;
10.9442;0.654602;9;46;0.000100555;10 mA;
11.1442;0.662537;9.2;47;0.000101013;10 mA;
11.3442;0.670471;9.4;48;9.96094e-05;10 mA;
11.5442;0.678101;9.6;49;0.000102386;10 mA;
11.7442;0.686035;9.8;50;9.92126e-05;10 mA;
11.9442;0.693665;10;51;0.000102539;10 mA;
12.1442;0.701294;10.2;52;0.000102631;10 mA;
12.3442;0.708923;10.4;53;0.000100555;10 mA;
12.5442;0.716553;10.6;54;0.000102051;10 mA;
12.7442;0.723877;10.8;55;0.000100525;10 mA;
12.9442;0.731506;11;56;0.000100983;10 mA;
13.1442;0.738831;11.2;57;9.97009e-05;10 mA;
13.3442;0.746155;11.4;58;0.000101074;10 mA;
13.5442;0.753174;11.6;59;0.000100098;10 mA;
13.7442;0.760498;11.8;60;0.00010141;10 mA;
13.9442;0.767517;12;61;0.000102753;10 mA;
14.1442;0.774231;12.2;62;9.94263e-05;10 mA;
14.3442;0.78125;12.4;63;0.000102783;10 mA;
14.5442;0.787964;12.6;64;9.8938e-05;10 mA;
14.7442;0.794678;12.8;65;9.87549e-05;10 mA;
14.9442;0.801086;13;66;0.000103394;10 mA;
15.1442;0.8078;13.2;67;0.000100525;10 mA;
15.3442;0.814209;13.4;68;0.000103271;10 mA;
15.5442;0.8203125;13.6;69;9.98535e-05;10 mA;
15.7442;0.826416;13.8;70;0.000100281;10 mA;
15.9442;0.83252;14;71;9.87244e-05;10 mA;
16.1442;0.838318;14.2;72;0.00010025;10 mA;
16.3442;0.844116;14.4;73;0.000100708;10 mA;
16.5442;0.849915;14.6;74;0.000101776;10 mA;
16.7442;0.855408;14.8;75;0.000100037;10 mA;WE(1).Potential > 0.85 V
16.9442;0.860901;15;76;0.000100159;10 mA;WE(1).Potential > 0.85 V
17.1442;0.866089;15.2;77;9.95178e-05;10 mA;WE(1).Potential > 0.85 V
17.3442;0.870972;15.4;78;0.000100922;10 mA;WE(1).Potential > 0.85 V

File: CDMXene2-10Ag-1DESCARGA2.txt
Time (s);WE(1).Potential (V);Corrected time (s);Index;WE(1).Current (A);Current range;Cutoffs
17.5442;0.760193;0;1;-8.79822e-05;10 mA;
17.7442;0.718689;0.2;2;-9.01794e-05;10 mA;
17.9442;0.686646;0.4;3;-8.91724e-05;10 mA;
18.1442;0.659485;0.6;4;-9.00269e-05;10 mA;
18.3442;0.635681;0.8;5;-9.04541e-05;10 mA;
18.5442;0.614014;1;6;-8.61816e-05;10 mA;
18.7442;0.594177;1.2;7;-9.04236e-05;10 mA;
18.9442;0.575562;1.4;8;-8.88672e-05;10 mA;
19.1442;0.558472;1.6;9;-8.81958e-05;10 mA;
19.3442;0.542603;1.8;10;-8.74023e-05;10 mA;
19.5442;0.527344;2;11;-8.95081e-05;10 mA;
19.7442;0.513;2.2;12;-8.8562e-05;10 mA;
19.9442;0.499573;2.4;13;-8.68835e-05;10 mA;
20.1442;0.486633;2.6;14;-8.63647e-05;10 mA;
20.3442;0.474365;2.8;15;-8.95691e-05;10 mA;
20.5442;0.462708;3;16;-8.88062e-05;10 mA;
20.7442;0.45163;3.2;17;-8.97217e-05;10 mA;
20.9442;0.441071;3.4;18;-8.70056e-05;10 mA;
21.1442;0.431;3.6;19;-8.76465e-05;10 mA;
21.3442;0.421417;3.8;20;-8.72192e-05;10 mA;
21.5442;0.412201;4;21;-8.82263e-05;10 mA;
21.7442;0.403442;4.2;22;-8.75854e-05;10 mA;
21.9442;0.394989;4.4;23;-8.79822e-05;10 mA;
22.1442;0.386902;4.6;24;-8.81653e-05;10 mA;
22.3442;0.37912;4.8;25;-8.74634e-05;10 mA;
22.5442;0.371582;5;26;-8.84705e-05;10 mA;
22.7442;0.364319;5.2;27;-9.021e-05;10 mA;
22.9442;0.357269;5.4;28;-8.75854e-05;10 mA;
23.1442;0.350403;5.6;29;-8.9325e-05;10 mA;
23.3442;0.343689;5.8;30;-8.96301e-05;10 mA;
23.5442;0.337158;6;31;-8.89893e-05;10 mA;
23.7442;0.33075;6.2;32;-9.05151e-05;10 mA;
23.9442;0.324463;6.4;33;-8.89587e-05;10 mA;
24.1442;0.318237;6.6;34;-8.7738e-05;10 mA;
24.3442;0.312134;6.8;35;-8.75854e-05;10 mA;
24.5442;0.306091;7;36;-8.7677e-05;10 mA;
24.7442;0.30011;7.2;37;-8.83484e-05;10 mA;
24.9442;0.29422;7.4;38;-8.72192e-05;10 mA;
25.1442;0.288361;7.6;39;-8.96301e-05;10 mA;
25.3442;0.282532;7.8;40;-8.96606e-05;10 mA;
25.5442;0.276733;8;41;-8.80737e-05;10 mA;
25.7442;0.270905;8.2;42;-9.05457e-05;10 mA;
25.9442;0.265137;8.4;43;-8.79517e-05;10 mA;
26.1442;0.259338;8.6;44;-8.83484e-05;10 mA;
26.3442;0.253571;8.8;45;-8.73718e-05;10 mA;
26.5442;0.247803;9;46;-8.93555e-05;10 mA;
26.7442;0.242035;9.2;47;-9.05457e-05;10 mA;
26.9442;0.236237;9.4;48;-9.08813e-05;10 mA;
27.1442;0.230499;9.6;49;-8.87756e-05;10 mA;
27.3442;0.224701;9.8;50;-8.87451e-05;10 mA;
27.5442;0.218933;10;51;-9.07898e-05;10 mA;
27.7442;0.213135;10.2;52;-8.92029e-05;10 mA;
27.9442;0.207367;10.4;53;-8.81042e-05;10 mA;
28.1442;0.20163;10.6;54;-8.72803e-05;10 mA;
28.3442;0.195801;10.8;55;-8.97522e-05;10 mA;
28.5442;0.190033;11;56;-8.84705e-05;10 mA;
28.7442;0.184204;11.2;57;-8.78296e-05;10 mA;
28.9442;0.178406;11.4;58;-8.73108e-05;10 mA;
29.1442;0.172546;11.6;59;-9.08508e-05;10 mA;
29.3442;0.166687;11.8;60;-9.03931e-05;10 mA;
29.5442;0.160828;12;61;-8.70667e-05;10 mA;
29.7442;0.154968;12.2;62;-8.97827e-05;10 mA;
29.9442;0.149109;12.4;63;-8.80432e-05;10 mA;
30.1442;0.14325;12.6;64;-8.70056e-05;10 mA;
30.3442;0.13739;12.8;65;-8.65173e-05;10 mA;
30.5442;0.131531;13;66;-8.69141e-05;10 mA;
30.7442;0.125702;13.2;67;-8.71887e-05;10 mA;
30.9442;0.119904;13.4;68;-8.71582e-05;10 mA;
31.1442;0.114136;13.6;69;-8.94775e-05;10 mA;
31.3442;0.108429;13.8;70;-8.72192e-05;10 mA;
31.5442;0.102753;14;71;-9.06067e-05;10 mA;
31.7442;0.097168;14.2;72;-8.9386e-05;10 mA;
31.9442;0.0916138;14.4;73;-8.7616e-05;10 mA;
32.1442;0.0861511;14.6;74;-8.984375E-05;10 mA;
32.3442;0.08078;14.8;75;-9.17053e-05;10 mA;
32.5442;0.0755005;15;76;-8.83789e-05;10 mA;
32.7442;0.070282;15.2;77;-9.15527e-05;10 mA;
32.9442;0.065155;15.4;78;-8.55103e-05;10 mA;
33.1442;0.0601501;15.6;79;-8.88367e-05;10 mA;
33.3442;0.0552063;15.8;80;-8.79517e-05;10 mA;
33.5442;0.0503845;16;81;-9.15527e-05;10 mA;
33.7442;0.0456085;16.2;82;-8.70361e-05;10 mA;
33.9442;0.0409973;16.4;83;-9.021e-05;10 mA;
34.1442;0.0364868;16.6;84;-9.16138e-05;10 mA;
34.3442;0.0320831;16.8;85;-8.87756e-05;10 mA;
34.5442;0.0277985;17;86;-8.81653e-05;10 mA;
34.7442;0.0236298;17.2;87;-8.77075e-05;10 mA;
34.9442;0.0195526;17.4;88;-9.04846e-05;10 mA;
35.1442;0.0156128;17.6;89;-8.96912e-05;10 mA;
35.3442;0.0117432;17.8;90;-8.87756e-05;10 mA;
35.5442;0.00799866;18;91;-9.10339e-05;10 mA;
35.7442;0.0043335;18.2;92;-8.9447e-05;10 mA;
35.9442;0.000759888;18.4;93;-8.87146e-05;10 mA;
36.1442;-0.00271606;18.6;94;-9.08203e-05;10 mA;
36.3442;-0.00609741;18.8;95;-9.05762e-05;10 mA;
36.5442;-0.00935974;19;96;-8.81653e-05;10 mA;
36.7442;-0.0125488;19.2;97;-8.8501e-05;10 mA;
36.9442;-0.0156403;19.4;98;-8.89587e-05;10 mA;
37.1442;-0.0186768;19.6;99;-8.89282e-05;10 mA;
37.3442;-0.021582;19.8;100;-8.9325e-05;10 mA;
37.5442;-0.024469;20;101;-8.75854e-05;10 mA;
37.7442;-0.02724;20.2;102;-8.97522e-05;10 mA;
37.9442;-0.02995;20.4;103;-8.80127e-05;10 mA;
38.1442;-0.0325989;20.6;104;-8.95386e-05;10 mA;
38.3442;-0.0351837;20.8;105;-8.91418e-05;10 mA;
38.5442;-0.0376862;21;106;-8.84399e-05;10 mA;
38.7442;-0.0401184;21.2;107;-8.91724e-05;10 mA;
38.9442;-0.0425079;21.4;108;-8.91418e-05;10 mA;
39.1442;-0.0448212;21.6;109;-8.9386e-05;10 mA;
39.3442;-0.0470612;21.8;110;-9.05762e-05;10 mA;
39.5442;-0.0492645;22;111;-9.07898e-05;10 mA;
39.7442;-0.0513916;22.2;112;-9.10645e-05;10 mA;
39.9442;-0.0534363;22.4;113;-8.86841e-05;10 mA;
40.1442;-0.0554504;22.6;114;-8.90198e-05;10 mA;
40.3442;-0.0574341;22.8;115;-8.92334e-05;10 mA;
40.5442;-0.0593262;23;116;-8.88367e-05;10 mA;
40.7442;-0.0612183;23.2;117;-8.69141e-05;10 mA;
40.9442;-0.0630493;23.4;118;-8.92029e-05;10 mA;
41.1442;-0.0648193;23.6;119;-9.03015e-05;10 mA;
41.3442;-0.0665894;23.8;120;-8.68835e-05;10 mA;
41.5442;-0.0682983;24;121;-8.9325e-05;10 mA;
41.7442;-0.0699768;24.2;122;-9.22852e-05;10 mA;
41.9442;-0.0715942;24.4;123;-9.27734e-05;10 mA;
42.1442;-0.0732422;24.6;124;-9.03015e-05;10 mA;
42.3442;-0.0747986;24.8;125;-8.8501e-05;10 mA;
42.5442;-0.076355;25;126;-9.021e-05;10 mA;
42.7442;-0.0778503;25.2;127;-8.7738e-05;10 mA;
42.9442;-0.0792847;25.4;128;-8.85925e-05;10 mA;
43.1442;-0.080719;25.6;129;-9.24072e-05;10 mA;
43.3442;-0.0821228;25.8;130;-8.77686e-05;10 mA;
43.5442;-0.0835266;26;131;-9.14307e-05;10 mA;
43.7442;-0.0848694;26.2;132;-8.81958e-05;10 mA;
43.9442;-0.0861816;26.4;133;-8.99353e-05;10 mA;
44.1442;-0.0875244;26.6;134;-8.70056e-05;10 mA;
44.3442;-0.0888062;26.8;135;-8.89282e-05;10 mA;
44.5442;-0.0900269;27;136;-8.83484e-05;10 mA;
44.7442;-0.0912781;27.2;137;-8.96606e-05;10 mA;
44.9442;-0.0925293;27.4;138;-8.80737e-05;10 mA;
45.1442;-0.0937195;27.6;139;-9.021e-05;10 mA;
45.3442;-0.0949097;27.8;140;-8.82568e-05;10 mA;
45.5442;-0.0960693;28;141;-8.84094e-05;10 mA;
45.7442;-0.0971985;28.2;142;-8.71887e-05;10 mA;
45.9442;-0.0983276;28.4;143;-8.67004e-05;10 mA;
46.1442;-0.0994263;28.6;144;-9.1156e-05;10 mA;
46.3442;-0.100494;28.8;145;-8.96606e-05;10 mA;WE(1).Potential < -0,1 V
46.5442;-0.101532;29;146;-9.11865e-05;10 mA;WE(1).Potential < -0,1 V
46.7442;-0.102539;29.2;147;-8.81042e-05;10 mA;WE(1).Potential < -0,1 V
46.9442;-0.103577;29.4;148;-9.06677e-05;10 mA;WE(1).Potential < -0,1 V