Folder: Carga-Descarga (part 8)

File: Mxene1-1Ag-DESCARGA.txt
Time (s);WE(1).Potential (V);Corrected time (s);Index;WE(1).Current (A);Current range
401.786;0.657349;0;1;-2.19727e-06;10 mA
403.786;0.64209;2;11;-2.0752e-06;10 mA
405.786;0.632324;4;21;-2.53296e-06;10 mA
407.786;0.624695;6;31;-2.62451e-06;10 mA
409.786;0.617371;8;41;-2.34985e-06;10 mA
411.786;0.610657;10;51;-2.62451e-06;10 mA
413.786;0.604553;12;61;-2.28882e-06;10 mA
415.786;0.59845;14;71;-2.89917e-06;10 mA
417.786;0.592957;16;81;-2.92969e-06;10 mA
419.786;0.587463;18;91;-2.56348e-06;10 mA
421.786;0.582275;20;101;-2.28882e-06;10 mA
423.786;0.577393;22;111;-2.53296e-06;10 mA
425.786;0.572815;24;121;-2.71606e-06;10 mA
427.786;0.568237;26;131;-2.47192e-06;10 mA
429.786;0.563965;28;141;-2.13623e-06;10 mA
431.786;0.559387;30;151;-2.47192e-06;10 mA
433.786;0.55542;32;161;-2.38037e-06;10 mA
435.786;0.551147;34;171;-2.68555e-06;10 mA
437.786;0.54718;36;181;-2.68555e-06;10 mA
439.786;0.543518;38;191;-2.74658e-06;10 mA
441.786;0.539551;40;201;-2.65503e-06;10 mA
443.786;0.535583;42;211;-2.44141e-06;10 mA
445.786;0.531921;44;221;-2.34985e-06;10 mA
447.786;0.528259;46;231;-2.2583e-06;10 mA
449.786;0.524902;48;241;-3.05176e-06;10 mA
451.786;0.521545;50;251;-2.53296e-06;10 mA
453.786;0.518188;52;261;-2.83813e-06;10 mA
455.786;0.515137;54;271;-2.86865e-06;10 mA
457.786;0.512085;56;281;-2.68555e-06;10 mA
459.786;0.509033;58;291;-2.68555e-06;10 mA
461.786;0.505981;60;301;-2.7771e-06;10 mA
463.786;0.503235;62;311;-2.80762e-06;10 mA
465.786;0.500183;64;321;-2.96021e-06;10 mA
467.786;0.497528;66;331;-2.68555e-06;10 mA
469.786;0.494659;68;341;-2.62451e-06;10 mA
471.786;0.491852;70;351;-2.50244e-06;10 mA
473.786;0.489105;72;361;-2.56348e-06;10 mA
475.786;0.48642;74;371;-2.83813e-06;10 mA
477.786;0.483948;76;381;-2.7771e-06;10 mA
479.786;0.481415;78;391;-2.59399e-06;10 mA
481.786;0.478943;80;401;-2.7771e-06;10 mA
483.786;0.476593;82;411;-2.44141e-06;10 mA
485.786;0.474243;84;421;-2.50244e-06;10 mA
487.786;0.471893;86;431;-2.65503e-06;10 mA
489.786;0.469543;88;441;-2.96021e-06;10 mA
491.786;0.467194;90;451;-2.56348e-06;10 mA
493.786;0.464996;92;461;-2.59399e-06;10 mA
495.786;0.46283;94;471;-2.92969e-06;10 mA
497.786;0.460602;96;481;-2.68555e-06;10 mA
499.786;0.458405;98;491;-2.68555e-06;10 mA
501.786;0.456268;100;501;-2.74658e-06;10 mA
503.786;0.454254;102;511;-2.34985e-06;10 mA
505.786;0.452332;104;521;-2.62451e-06;10 mA
507.786;0.450317;106;531;-2.7771e-06;10 mA
509.786;0.448395;108;541;-2.92969e-06;10 mA
511.786;0.446503;110;551;-2.83813e-06;10 mA
513.786;0.444641;112;561;-3.11279e-06;10 mA
515.786;0.44278;114;571;-3.02124e-06;10 mA
517.786;0.440948;116;581;-2.96021e-06;10 mA
519.786;0.439087;118;591;-2.86865e-06;10 mA
521.786;0.437225;120;601;-2.65503e-06;10 mA
523.786;0.435333;122;611;-2.7771e-06;10 mA
525.786;0.433533;124;621;-3.20435e-06;10 mA
527.786;0.431732;126;631;-2.92969e-06;10 mA
529.786;0.430023;128;641;-2.92969e-06;10 mA
531.786;0.428345;130;651;-2.89917e-06;10 mA
533.786;0.426544;132;661;-2.83813e-06;10 mA
535.786;0.424896;134;671;-2.83813e-06;10 mA
537.786;0.423279;136;681;-3.02124e-06;10 mA
539.786;0.421722;138;691;-2.80762e-06;10 mA
541.786;0.420074;140;701;-2.50244e-06;10 mA
543.786;0.418549;142;711;-3.23486e-06;10 mA
545.786;0.417023;144;721;-2.68555e-06;10 mA
547.786;0.415436;146;731;-2.71606e-06;10 mA
549.786;0.41391;148;741;-3.05176e-06;10 mA
551.786;0.412445;150;751;-2.86865e-06;10 mA
553.786;0.41095;152;761;-3.32642e-06;10 mA
555.786;0.409454;154;771;-2.92969e-06;10 mA
557.786;0.40802;156;781;-2.7771e-06;10 mA
559.786;0.406555;158;791;-2.7771e-06;10 mA
561.786;0.405151;160;801;-3.20435e-06;10 mA
563.786;0.403717;162;811;-2.59399e-06;10 mA
565.786;0.402374;164;821;-3.08228e-06;10 mA
567.786;0.401031;166;831;-2.83813e-06;10 mA
569.786;0.399689;168;841;-3.32642e-06;10 mA
571.786;0.398407;170;851;-2.83813e-06;10 mA
573.786;0.397095;172;861;-2.71606e-06;10 mA
575.786;0.395813;174;871;-2.96021e-06;10 mA
577.786;0.394623;176;881;-2.50244e-06;10 mA
579.786;0.393341;178;891;-2.89917e-06;10 mA
581.786;0.39212;180;901;-2.96021e-06;10 mA
583.786;0.3909;182;911;-2.71606e-06;10 mA
585.786;0.389709;184;921;-2.92969e-06;10 mA
587.786;0.388489;186;931;-2.68555e-06;10 mA
589.786;0.387299;188;941;-3.26538e-06;10 mA
591.786;0.386078;190;951;-3.14331e-06;10 mA
593.786;0.384827;192;961;-2.92969e-06;10 mA
595.786;0.383667;194;971;-2.99072e-06;10 mA
597.786;0.382446;196;981;-2.80762e-06;10 mA
599.786;0.381317;198;991;-2.86865e-06;10 mA
601.786;0.380127;200;1001;-2.65503e-06;10 mA
603.786;0.378937;202;1011;-2.71606e-06;10 mA
605.786;0.377747;204;1021;-2.74658e-06;10 mA
607.786;0.376617;206;1031;-3.08228e-06;10 mA
609.786;0.37558;208;1041;-2.83813e-06;10 mA
611.786;0.374542;210;1051;-2.59399e-06;10 mA
613.786;0.373383;212;1061;-3.17383e-06;10 mA
615.786;0.372375;214;1071;-2.71606e-06;10 mA
617.786;0.371307;216;1081;-2.89917e-06;10 mA
619.786;0.37027;218;1091;-2.99072e-06;10 mA
621.786;0.369171;220;1101;-2.92969e-06;10 mA
623.786;0.368134;222;1111;-2.83813e-06;10 mA
625.786;0.367126;224;1121;-2.68555e-06;10 mA
627.786;0.366058;226;1131;-2.74658e-06;10 mA
629.786;0.365021;228;1141;-2.56348e-06;10 mA
631.786;0.363953;230;1151;-2.71606e-06;10 mA
633.786;0.362946;232;1161;-3.17383e-06;10 mA
635.786;0.361908;234;1171;-2.86865e-06;10 mA
637.786;0.360901;236;1181;-2.99072e-06;10 mA
639.786;0.359802;238;1191;-3.26538e-06;10 mA
641.786;0.358826;240;1201;-2.92969e-06;10 mA
643.786;0.357849;242;1211;-2.89917e-06;10 mA
645.786;0.356903;244;1221;-2.74658e-06;10 mA
647.786;0.355927;246;1231;-2.86865e-06;10 mA
649.786;0.355011;248;1241;-2.92969e-06;10 mA
651.786;0.354065;250;1251;-2.89917e-06;10 mA
653.786;0.35321;252;1261;-3.08228e-06;10 mA
655.786;0.352325;254;1271;-3.32642e-06;10 mA
657.786;0.351471;256;1281;-3.08228e-06;10 mA
659.786;0.350555;258;1291;-2.86865e-06;10 mA
661.786;0.349609;260;1301;-3.20435e-06;10 mA
663.786;0.348694;262;1311;-2.89917e-06;10 mA
665.786;0.347778;264;1321;-2.99072e-06;10 mA
667.786;0.346802;266;1331;-3.54004e-06;10 mA
669.786;0.345856;268;1341;-3.26538e-06;10 mA
671.786;0.34494;270;1351;-2.7771e-06;10 mA
673.786;0.343994;272;1361;-2.89917e-06;10 mA
675.786;0.343109;274;1371;-2.56348e-06;10 mA
677.786;0.342163;276;1381;-3.05176e-06;10 mA
679.786;0.341248;278;1391;-2.74658e-06;10 mA
681.786;0.340302;280;1401;-2.80762e-06;10 mA
683.786;0.339447;282;1411;-3.20435e-06;10 mA
685.786;0.338562;284;1421;-2.92969e-06;10 mA
687.786;0.337677;286;1431;-2.99072e-06;10 mA
689.786;0.336792;288;1441;-3.02124e-06;10 mA
691.786;0.335907;290;1451;-2.68555e-06;10 mA
693.786;0.335022;292;1461;-2.89917e-06;10 mA
695.786;0.334167;294;1471;-2.83813e-06;10 mA
697.786;0.333313;296;1481;-2.7771e-06;10 mA
699.786;0.332458;298;1491;-2.92969e-06;10 mA
701.786;0.331573;300;1501;-2.83813e-06;10 mA
703.786;0.330688;302;1511;-3.17383e-06;10 mA
705.786;0.329773;304;1521;-2.96021e-06;10 mA
707.786;0.328888;306;1531;-3.41797e-06;10 mA
709.786;0.328033;308;1541;-3.17383e-06;10 mA
711.786;0.327179;310;1551;-3.20435e-06;10 mA
713.786;0.326294;312;1561;-2.99072e-06;10 mA
715.786;0.32547;314;1571;-3.02124e-06;10 mA
717.786;0.324615;316;1581;-2.34985e-06;10 mA
719.786;0.3237;318;1591;-3.08228e-06;10 mA
721.786;0.322815;320;1601;-2.74658e-06;10 mA
723.786;0.32193;322;1611;-3.20435e-06;10 mA
725.786;0.321075;324;1621;-2.92969e-06;10 mA
727.786;0.320343;326;1631;-2.80762e-06;10 mA
729.786;0.319489;328;1641;-2.89917e-06;10 mA
731.786;0.318665;330;1651;-3.14331e-06;10 mA
733.786;0.31778;332;1661;-2.92969e-06;10 mA
735.786;0.316895;334;1671;-3.2959e-06;10 mA
737.786;0.316071;336;1681;-2.92969e-06;10 mA
739.786;0.315216;338;1691;-3.02124e-06;10 mA
741.786;0.314362;340;1701;-2.92969e-06;10 mA
743.786;0.313599;342;1711;-2.68555e-06;10 mA
745.786;0.312714;344;1721;-2.89917e-06;10 mA
747.786;0.311829;346;1731;-3.17383e-06;10 mA
749.786;0.310944;348;1741;-2.96021e-06;10 mA
751.786;0.310089;350;1751;-2.83813e-06;10 mA
753.786;0.309265;352;1761;-2.96021e-06;10 mA
755.786;0.308411;354;1771;-3.35693e-06;10 mA
757.786;0.307587;356;1781;-2.86865e-06;10 mA
759.786;0.306702;358;1791;-2.86865e-06;10 mA
761.786;0.305847;360;1801;-3.11279e-06;10 mA
763.786;0.305023;362;1811;-2.92969e-06;10 mA
765.786;0.304199;364;1821;-3.35693e-06;10 mA
767.786;0.303375;366;1831;-2.80762e-06;10 mA
769.786;0.30249;368;1841;-2.99072e-06;10 mA
771.786;0.301605;370;1851;-3.08228e-06;10 mA
773.786;0.300781;372;1861;-3.05176e-06;10 mA
775.786;0.299988;374;1871;-2.80762e-06;10 mA
777.786;0.299164;376;1881;-2.92969e-06;10 mA
779.786;0.298309;378;1891;-3.02124e-06;10 mA
781.786;0.297455;380;1901;-2.92969e-06;10 mA
783.786;0.296661;382;1911;-2.56348e-06;10 mA
785.786;0.295868;384;1921;-3.05176e-06;10 mA
787.786;0.295044;386;1931;-2.92969e-06;10 mA
789.786;0.294189;388;1941;-2.56348e-06;10 mA
791.786;0.293274;390;1951;-3.35693e-06;10 mA
793.786;0.29245;392;1961;-2.99072e-06;10 mA
795.786;0.291565;394;1971;-3.20435e-06;10 mA
797.786;0.290741;396;1981;-2.86865e-06;10 mA
799.786;0.289856;398;1991;-2.92969e-06;10 mA
801.586;0.289124;399.8;2000;-2.7771e-06;10 mA

File: Mxene1-5Ag-CARGA.txt
Time (s);WE(1).Potential (V);Corrected time (s);Index;WE(1).Current (A);Current range;Cutoffs
349.408;-0.0378601;0;1;4.98352e-05;10 mA;WE(1).Potential > 0,85 V , WE(1).Potential > 0,85 V , WE(1).Potential > 0,85 V , WE(1).Potential > 0,85 V
349.608;-0.0295624;0.2;2;5.09033e-05;10 mA;
350.408;-0.00402222;1;6;4.84314e-05;10 mA;
351.208;0.0159149;1.8;10;4.91333e-05;10 mA;
352.008;0.0329681;2.6;14;4.8584e-05;10 mA;
352.808;0.0481689;3.4;18;4.98962e-05;10 mA;
353.608;0.0621338;4.2;22;4.82788e-05;10 mA;
354.408;0.0749817;5;26;4.90723e-05;10 mA;
355.208;0.0869141;5.8;30;4.7821e-05;10 mA;
356.008;0.098053;6.6;34;5.12085e-05;10 mA;
356.808;0.108551;7.4;38;4.75464e-05;10 mA;
357.608;0.11853;8.2;42;4.95605e-05;10 mA;
358.408;0.128021;9;46;5.01404e-05;10 mA;
359.208;0.137054;9.8;50;4.90723e-05;10 mA;
360.008;0.145721;10.6;54;5.00793e-05;10 mA;
360.808;0.154053;11.4;58;5.13611e-05;10 mA;
361.608;0.162048;12.2;62;4.97437e-05;10 mA;
362.408;0.1698;13;66;4.80957e-05;10 mA;
363.208;0.177277;13.8;70;4.89502e-05;10 mA;
364.008;0.18457;14.6;74;4.98352e-05;10 mA;
364.808;0.191589;15.4;78;4.7699e-05;10 mA;
365.608;0.198364;16.2;82;5.05676e-05;10 mA;
366.408;0.204956;17;86;5.14221e-05;10 mA;
367.208;0.211334;17.8;90;4.953e-05;10 mA;
368.008;0.217621;18.6;94;5.00183e-05;10 mA;
368.808;0.223755;19.4;98;5.11169e-05;10 mA;
369.608;0.229736;20.2;102;5.10864e-05;10 mA;
370.408;0.235596;21;106;5.11169e-05;10 mA;
371.208;0.241302;21.8;110;5.078125E-05;10 mA;
372.008;0.246948;22.6;114;4.87366e-05;10 mA;
372.808;0.252441;23.4;118;4.80042e-05;10 mA;
373.608;0.257874;24.2;122;5.07202e-05;10 mA;
374.408;0.263153;25;126;4.9469e-05;10 mA;
375.208;0.268372;25.8;130;4.76685e-05;10 mA;
376.008;0.273499;26.6;134;5.11169e-05;10 mA;
376.808;0.278564;27.4;138;4.776e-05;10 mA;
377.608;0.283539;28.2;142;5.13306e-05;10 mA;
378.408;0.288422;29;146;4.96216e-05;10 mA;
379.208;0.293243;29.8;150;5.05371e-05;10 mA;
380.008;0.297974;30.6;154;4.90112e-05;10 mA;
380.808;0.302643;31.4;158;4.93164e-05;10 mA;
381.608;0.30719;32.2;162;4.80652e-05;10 mA;
382.408;0.311676;33;166;5.11169e-05;10 mA;
383.208;0.316101;33.8;170;4.87061e-05;10 mA;
384.008;0.320526;34.6;174;4.94995e-05;10 mA;
384.808;0.32486;35.4;178;4.87061e-05;10 mA;
385.608;0.329071;36.2;182;5.22766e-05;10 mA;
386.408;0.333252;37;186;5.0293e-05;10 mA;
387.208;0.337402;37.8;190;4.79736e-05;10 mA;
388.008;0.341492;38.6;194;5.29785e-05;10 mA;
388.808;0.34552;39.4;198;5.2063e-05;10 mA;
389.608;0.349487;40.2;202;4.8584e-05;10 mA;
390.408;0.353455;41;206;4.98962e-05;10 mA;
391.208;0.357391;41.8;210;5.08423e-05;10 mA;
392.008;0.361298;42.6;214;4.90417e-05;10 mA;
392.808;0.365173;43.4;218;4.90112e-05;10 mA;
393.608;0.36908;44.2;222;4.94385e-05;10 mA;
394.408;0.372894;45;226;4.93164e-05;10 mA;
395.208;0.376709;45.8;230;5.04761e-05;10 mA;
396.008;0.380493;46.6;234;4.93164e-05;10 mA;
396.808;0.384247;47.4;238;5.04456e-05;10 mA;
397.608;0.388062;48.2;242;5.07202e-05;10 mA;
398.408;0.391846;49;246;5.06287e-05;10 mA;
399.208;0.39563;49.8;250;5.08118e-05;10 mA;
400.008;0.399414;50.6;254;4.9408e-05;10 mA;
400.808;0.403198;51.4;258;5.00488e-05;10 mA;
401.608;0.406952;52.2;262;4.81567e-05;10 mA;
402.408;0.410767;53;266;4.98047e-05;10 mA;
403.208;0.414612;53.8;270;5.03235e-05;10 mA;
404.008;0.418396;54.6;274;4.98962e-05;10 mA;
404.808;0.42218;55.4;278;4.97437e-05;10 mA;
405.608;0.426025;56.2;282;4.93164e-05;10 mA;
406.408;0.429871;57;286;4.78821e-05;10 mA;
407.208;0.433716;57.8;290;5.03235e-05;10 mA;
408.008;0.437561;58.6;294;5.0293e-05;10 mA;
408.808;0.441406;59.4;298;5.02319e-05;10 mA;
409.608;0.445282;60.2;302;5.09949e-05;10 mA;
410.408;0.449158;61;306;4.75769e-05;10 mA;
411.208;0.453064;61.8;310;4.98962e-05;10 mA;
412.008;0.45697;62.6;314;4.82788e-05;10 mA;
412.808;0.460876;63.4;318;5.09033e-05;10 mA;
413.608;0.464844;64.2;322;4.91943e-05;10 mA;
414.408;0.468872;65;326;5.04761e-05;10 mA;
415.208;0.472809;65.8;330;4.95605e-05;10 mA;
416.008;0.476715;66.6;334;5.01099e-05;10 mA;
416.808;0.480774;67.4;338;4.81262e-05;10 mA;
417.608;0.48468;68.2;342;5.12085e-05;10 mA;
418.408;0.488617;69;346;5.08118e-05;10 mA;
419.208;0.492676;69.8;350;5.12695e-05;10 mA;
420.008;0.496674;70.6;354;5.26123e-05;10 mA;
420.808;0.500488;71.4;358;4.84924e-05;10 mA;
421.608;0.504456;72.2;362;4.953e-05;10 mA;
422.408;0.508728;73;366;5.06897e-05;10 mA;
423.208;0.512695;73.8;370;4.99268e-05;10 mA;
424.008;0.516663;74.6;374;4.83398e-05;10 mA;
424.808;0.52063;75.4;378;5.00183e-05;10 mA;
425.608;0.524597;76.2;382;4.92554e-05;10 mA;
426.408;0.528564;77;386;4.93774e-05;10 mA;
427.208;0.532532;77.8;390;4.83704e-05;10 mA;
428.008;0.536499;78.6;394;4.81873e-05;10 mA;
428.808;0.540466;79.4;398;5.10864e-05;10 mA;
429.608;0.544739;80.2;402;5.16357e-05;10 mA;
430.408;0.548706;81;406;4.89807e-05;10 mA;
431.208;0.552673;81.8;410;4.97742e-05;10 mA;
432.008;0.556641;82.6;414;4.93164e-05;10 mA;
432.808;0.560608;83.4;418;4.86755e-05;10 mA;
433.608;0.564575;84.2;422;5.01404e-05;10 mA;
434.408;0.568542;85;426;4.97131e-05;10 mA;
435.208;0.57251;85.8;430;4.94995e-05;10 mA;
436.008;0.576477;86.6;434;5.05676e-05;10 mA;
436.808;0.580139;87.4;438;4.95911e-05;10 mA;
437.608;0.584106;88.2;442;4.92554e-05;10 mA;
438.408;0.588074;89;446;4.98962e-05;10 mA;
439.208;0.592041;89.8;450;4.96216e-05;10 mA;
440.008;0.596008;90.6;454;5.03845e-05;10 mA;
440.808;0.599976;91.4;458;4.99268e-05;10 mA;
441.608;0.603943;92.2;462;4.80957e-05;10 mA;
442.408;0.60791;93;466;4.91333e-05;10 mA;
443.208;0.611877;93.8;470;4.83093e-05;10 mA;
444.008;0.61554;94.6;474;5.19409e-05;10 mA;
444.808;0.619507;95.4;478;4.83398e-05;10 mA;
445.608;0.623474;96.2;482;4.84009e-05;10 mA;
446.408;0.627136;97;486;4.89502e-05;10 mA;
447.208;0.631104;97.8;490;4.90112e-05;10 mA;
448.008;0.635071;98.6;494;5.02319e-05;10 mA;
448.808;0.638733;99.4;498;4.98962e-05;10 mA;
449.608;0.642395;100.2;502;4.7699e-05;10 mA;
450.408;0.646362;101;506;4.93164e-05;10 mA;
451.208;0.650024;101.8;510;5.18188e-05;10 mA;
452.008;0.653687;102.6;514;4.94385e-05;10 mA;
452.808;0.657654;103.4;518;4.90723e-05;10 mA;
453.608;0.661316;104.2;522;5.16357e-05;10 mA;
454.408;0.665283;105;526;4.79126e-05;10 mA;
455.208;0.66925;105.8;530;5.24292e-05;10 mA;
456.008;0.672913;106.6;534;4.91333e-05;10 mA;
456.808;0.676575;107.4;538;5.01709e-05;10 mA;
457.608;0.680237;108.2;542;4.8645e-05;10 mA;
458.408;0.683899;109;546;4.7699e-05;10 mA;
459.208;0.687866;109.8;550;5.18188e-05;10 mA;
460.008;0.691528;110.6;554;4.89807e-05;10 mA;
460.808;0.69519;111.4;558;4.77905e-05;10 mA;
461.608;0.698853;112.2;562;4.76379e-05;10 mA;
462.408;0.702209;113;566;4.91638e-05;10 mA;
463.208;0.705872;113.8;570;5.00793e-05;10 mA;
464.008;0.709229;114.6;574;4.75159e-05;10 mA;
464.808;0.712891;115.4;578;4.81567e-05;10 mA;
465.608;0.716553;116.2;582;4.85535e-05;10 mA;
466.408;0.71991;117;586;5.10864e-05;10 mA;
467.208;0.723572;117.8;590;4.89197e-05;10 mA;
468.008;0.726929;118.6;594;4.83398e-05;10 mA;
468.808;0.730591;119.4;598;4.80042e-05;10 mA;
469.608;0.733948;120.2;602;5.15442e-05;10 mA;
470.408;0.737305;121;606;4.89807e-05;10 mA;
471.208;0.740356;121.8;610;4.84314e-05;10 mA;
472.008;0.743713;122.6;614;4.90112e-05;10 mA;
472.808;0.74707;123.4;618;4.80957e-05;10 mA;
473.608;0.750122;124.2;622;4.79126e-05;10 mA;
474.408;0.753479;125;626;5.01404e-05;10 mA;
475.208;0.756531;125.8;630;4.93469e-05;10 mA;
476.008;0.759583;126.6;634;4.91638e-05;10 mA;
476.808;0.762939;127.4;638;5.19409e-05;10 mA;
477.608;0.765991;128.2;642;5.32532e-05;10 mA;
478.408;0.769043;129;646;5.07507e-05;10 mA;
479.208;0.772095;129.8;650;4.953e-05;10 mA;
480.008;0.775146;130.6;654;4.75464e-05;10 mA;
480.808;0.777893;131.4;658;4.95911e-05;10 mA;
481.608;0.780945;132.2;662;4.84009e-05;10 mA;
482.408;0.783386;133;666;4.94385e-05;10 mA;
483.208;0.786133;133.8;670;4.93164e-05;10 mA;
484.008;0.788879;134.6;674;4.82178e-05;10 mA;
484.808;0.791626;135.4;678;4.75464e-05;10 mA;
485.608;0.794373;136.2;682;4.92859e-05;10 mA;
486.408;0.797119;137;686;4.8584e-05;10 mA;
487.208;0.799866;137.8;690;5.12085e-05;10 mA;
488.008;0.802307;138.6;694;4.82483e-05;10 mA;
488.808;0.805054;139.4;698;4.79126e-05;10 mA;
489.608;0.807495;140.2;702;4.99878e-05;10 mA;
490.408;0.809937;141;706;4.88892e-05;10 mA;
491.208;0.812378;141.8;710;5.10559e-05;10 mA;
492.008;0.814819;142.6;714;5.08423e-05;10 mA;
492.808;0.817261;143.4;718;4.97437e-05;10 mA;
493.608;0.819397;144.2;722;4.81567e-05;10 mA;
494.408;0.821838;145;726;4.98657e-05;10 mA;
495.208;0.82428;145.8;730;4.83093e-05;10 mA;
496.008;0.826111;146.6;734;5.09033e-05;10 mA;
496.808;0.828552;147.4;738;5.08118e-05;10 mA;
497.608;0.830688;148.2;742;4.9408e-05;10 mA;
498.408;0.832825;149;746;4.88586e-05;10 mA;
499.208;0.834656;149.8;750;4.79431e-05;10 mA;
500.008;0.836792;150.6;754;4.91333e-05;10 mA;
500.808;0.838623;151.4;758;4.69055e-05;10 mA;
501.608;0.840759;152.2;762;5.30396e-05;10 mA;
502.408;0.842896;153;766;4.95911e-05;10 mA;
503.208;0.844727;153.8;770;4.91028e-05;10 mA;
504.008;0.846558;154.6;774;4.93774e-05;10 mA;
504.808;0.848389;155.4;778;4.88892e-05;10 mA;
505.608;0.849915;156.2;782;4.78516e-05;10 mA;
506.408;0.851746;157;786;4.97742e-05;10 mA;WE(1).Potential > 0,85 V