Folder: Carga-Descarga (part 7)

File: Mxene1-1Ag-CARGA.txt
Time (s);WE(1).Potential (V);Corrected time (s);Index;WE(1).Current (A);Current range
1.7862;0.126923;0;1;1.55945e-05;10 mA
3.5862;0.136841;1.8;10;1.5686e-05;10 mA
5.3862;0.144104;3.6;19;1.55945e-05;10 mA
7.1862;0.150452;5.4;28;1.57471e-05;10 mA
8.9862;0.156311;7.2;37;1.59912e-05;10 mA
10.7862;0.161896;9;46;1.57471e-05;10 mA
12.5862;0.167145;10.8;55;1.62659e-05;10 mA
14.3862;0.17218;12.6;64;1.58997e-05;10 mA
16.1862;0.17688;14.4;73;1.58081e-05;10 mA
17.9862;0.181549;16.2;82;1.57166e-05;10 mA
19.7862;0.186005;18;91;1.54419e-05;10 mA
21.5862;0.190338;19.8;100;1.53198e-05;10 mA
23.3862;0.194489;21.6;109;1.57471e-05;10 mA
25.1862;0.198578;23.4;118;1.61133e-05;10 mA
26.9862;0.202606;25.2;127;1.57471e-05;10 mA
28.7862;0.206482;27;136;1.57471e-05;10 mA
30.5862;0.210327;28.8;145;1.58997e-05;10 mA
32.3862;0.21405;30.6;154;1.54724e-05;10 mA
34.1862;0.217651;32.4;163;1.56555e-05;10 mA
35.9862;0.2211;34.2;172;1.58081e-05;10 mA
37.7862;0.224548;36;181;1.55945e-05;10 mA
39.5862;0.227905;37.8;190;1.58081e-05;10 mA
41.3862;0.231201;39.6;199;1.54724e-05;10 mA
43.1862;0.234344;41.4;208;1.58386e-05;10 mA
44.9862;0.237518;43.2;217;1.55945e-05;10 mA
46.7862;0.240753;45;226;1.5564e-05;10 mA
48.5862;0.243958;46.8;235;1.57776e-05;10 mA
50.3862;0.247162;48.6;244;1.59302e-05;10 mA
52.1862;0.250275;50.4;253;1.56555e-05;10 mA
53.9862;0.253387;52.2;262;1.58691e-05;10 mA
55.7862;0.256439;54;271;1.60522e-05;10 mA
57.5862;0.25943;55.8;280;1.56555e-05;10 mA
59.3862;0.262421;57.6;289;1.59302e-05;10 mA
61.1862;0.26535;59.4;298;1.58081e-05;10 mA
62.9862;0.26825;61.2;307;1.55334e-05;10 mA
64.7862;0.271088;63;316;1.60217e-05;10 mA
66.5862;0.273834;64.8;325;1.59607e-05;10 mA
68.3862;0.276489;66.6;334;1.58081e-05;10 mA
70.1862;0.279205;68.4;343;1.55029e-05;10 mA
71.9862;0.281921;70.2;352;1.5564e-05;10 mA
73.7862;0.284546;72;361;1.58081e-05;10 mA
75.5862;0.287201;73.8;370;1.5686e-05;10 mA
77.3862;0.289734;75.6;379;1.52588e-05;10 mA
79.1862;0.292236;77.4;388;1.58997e-05;10 mA
80.9862;0.2948;79.2;397;1.5686e-05;10 mA
82.7862;0.297272;81;406;1.5625e-05;10 mA
84.5862;0.299652;82.8;415;1.58386e-05;10 mA
86.3862;0.302155;84.6;424;1.56555e-05;10 mA
88.1862;0.304596;86.4;433;1.5625e-05;10 mA
89.9862;0.307007;88.2;442;1.57776e-05;10 mA
91.7862;0.309418;90;451;1.5686e-05;10 mA
93.5862;0.311798;91.8;460;1.56555e-05;10 mA
95.3862;0.314178;93.6;469;1.59912e-05;10 mA
97.1862;0.316467;95.4;478;1.5625e-05;10 mA
98.9862;0.318756;97.2;487;1.55945e-05;10 mA
100.786;0.321106;99;496;1.58386e-05;10 mA
102.586;0.323334;100.8;505;1.58081e-05;10 mA
104.386;0.325623;102.6;514;1.5625e-05;10 mA
106.186;0.32785;104.4;523;1.60522e-05;10 mA
107.986;0.330048;106.2;532;1.58081e-05;10 mA
109.786;0.332214;108;541;1.58386e-05;10 mA
111.586;0.33429;109.8;550;1.57471e-05;10 mA
113.386;0.336395;111.6;559;1.58386e-05;10 mA
115.186;0.33847;113.4;568;1.59607e-05;10 mA
116.986;0.340546;115.2;577;1.61438e-05;10 mA
118.786;0.342651;117;586;1.57776e-05;10 mA
120.586;0.344696;118.8;595;1.57471e-05;10 mA
122.386;0.34668;120.6;604;1.55334e-05;10 mA
124.186;0.348785;122.4;613;1.62964e-05;10 mA
125.986;0.350861;124.2;622;1.55334e-05;10 mA
127.786;0.352875;126;631;1.58691e-05;10 mA
129.586;0.354889;127.8;640;1.55334e-05;10 mA
131.386;0.356873;129.6;649;1.58081e-05;10 mA
133.186;0.358887;131.4;658;1.59912e-05;10 mA
134.986;0.360901;133.2;667;1.60217e-05;10 mA
136.786;0.362976;135;676;1.57776e-05;10 mA
138.586;0.36496;136.8;685;1.5686e-05;10 mA
140.386;0.366913;138.6;694;1.55945e-05;10 mA
142.186;0.368835;140.4;703;1.58691e-05;10 mA
143.986;0.370819;142.2;712;1.58691e-05;10 mA
145.786;0.372803;144;721;1.57776e-05;10 mA
147.586;0.374756;145.8;730;1.60522e-05;10 mA
149.386;0.37674;147.6;739;1.58081e-05;10 mA
151.186;0.378754;149.4;748;1.57471e-05;10 mA
152.986;0.380737;151.2;757;1.58997e-05;10 mA
154.786;0.382751;153;766;1.55945e-05;10 mA
156.586;0.384766;154.8;775;1.5686e-05;10 mA
158.386;0.38678;156.6;784;1.58691e-05;10 mA
160.186;0.388794;158.4;793;1.61133e-05;10 mA
161.986;0.390747;160.2;802;1.59607e-05;10 mA
163.786;0.392761;162;811;1.5625e-05;10 mA
165.586;0.394775;163.8;820;1.60828e-05;10 mA
167.386;0.39679;165.6;829;1.57166e-05;10 mA
169.186;0.398804;167.4;838;1.5686e-05;10 mA
170.986;0.400879;169.2;847;1.59302e-05;10 mA
172.786;0.402893;171;856;1.57776e-05;10 mA
174.586;0.404907;172.8;865;1.61438e-05;10 mA
176.386;0.406891;174.6;874;1.57166e-05;10 mA
178.186;0.408905;176.4;883;1.59302e-05;10 mA
179.986;0.41095;178.2;892;1.59607e-05;10 mA
181.786;0.412964;180;901;1.58997e-05;10 mA
183.586;0.414978;181.8;910;1.59302e-05;10 mA
185.386;0.416992;183.6;919;1.61133e-05;10 mA
187.186;0.419098;185.4;928;1.58691e-05;10 mA
188.986;0.421234;187.2;937;1.5625e-05;10 mA
190.786;0.423279;189;946;1.58997e-05;10 mA
192.586;0.425232;190.8;955;1.58997e-05;10 mA
194.386;0.427216;192.6;964;1.57166e-05;10 mA
196.186;0.429291;194.4;973;1.57776e-05;10 mA
197.986;0.431335;196.2;982;1.57776e-05;10 mA
199.786;0.43338;198;991;1.60522e-05;10 mA
201.586;0.435455;199.8;1000;1.57471e-05;10 mA
203.386;0.437561;201.6;1009;1.60828e-05;10 mA
205.186;0.439636;203.4;1018;1.58081e-05;10 mA
206.986;0.441742;205.2;1027;1.58997e-05;10 mA
208.786;0.443787;207;1036;1.52588e-05;10 mA
210.586;0.445862;208.8;1045;1.5686e-05;10 mA
212.386;0.447906;210.6;1054;1.60828e-05;10 mA
214.186;0.449982;212.4;1063;1.58386e-05;10 mA
215.986;0.451996;214.2;1072;1.61438e-05;10 mA
217.786;0.454071;216;1081;1.61438e-05;10 mA
219.586;0.456116;217.8;1090;1.56555e-05;10 mA
221.386;0.458191;219.6;1099;1.57166e-05;10 mA
223.186;0.460236;221.4;1108;1.58691e-05;10 mA
224.986;0.46225;223.2;1117;1.60217e-05;10 mA
226.786;0.464325;225;1126;1.57776e-05;10 mA
228.586;0.466339;226.8;1135;1.57471e-05;10 mA
230.386;0.468445;228.6;1144;1.55334e-05;10 mA
232.186;0.47049;230.4;1153;1.58386e-05;10 mA
233.986;0.472595;232.2;1162;1.60828e-05;10 mA
235.786;0.474731;234;1171;1.60522e-05;10 mA
237.586;0.476807;235.8;1180;1.61438e-05;10 mA
239.386;0.479095;237.6;1189;1.61133e-05;10 mA
241.186;0.481232;239.4;1198;1.61438e-05;10 mA
242.986;0.483398;241.2;1207;1.61438e-05;10 mA
244.786;0.485504;243;1216;1.61743e-05;10 mA
246.586;0.48764;244.8;1225;1.58691e-05;10 mA
248.386;0.489838;246.6;1234;1.60522e-05;10 mA
250.186;0.491943;248.4;1243;1.61133e-05;10 mA
251.986;0.494019;250.2;1252;1.61133e-05;10 mA
253.786;0.496155;252;1261;1.57776e-05;10 mA
255.586;0.498169;253.8;1270;1.58386e-05;10 mA
257.386;0.500183;255.6;1279;1.56555e-05;10 mA
259.186;0.502014;257.4;1288;1.61743e-05;10 mA
260.986;0.50415;259.2;1297;1.59302e-05;10 mA
262.786;0.506287;261;1306;1.5686e-05;10 mA
264.586;0.508728;262.8;1315;1.62048e-05;10 mA
266.386;0.510864;264.6;1324;1.61438e-05;10 mA
268.186;0.513;266.4;1333;1.59912e-05;10 mA
269.986;0.514832;268.2;1342;1.60828e-05;10 mA
271.786;0.516968;270;1351;1.58997e-05;10 mA
273.586;0.519104;271.8;1360;1.60828e-05;10 mA
275.386;0.52124;273.6;1369;1.57776e-05;10 mA
277.186;0.523376;275.4;1378;1.59607e-05;10 mA
278.986;0.525513;277.2;1387;1.61133e-05;10 mA
280.786;0.527649;279;1396;1.59302e-05;10 mA
282.586;0.529785;280.8;1405;1.61743e-05;10 mA
284.386;0.531921;282.6;1414;1.59607e-05;10 mA
286.186;0.534058;284.4;1423;1.60217e-05;10 mA
287.986;0.535889;286.2;1432;1.59912e-05;10 mA
289.786;0.538025;288;1441;1.61133e-05;10 mA
291.586;0.540161;289.8;1450;1.57166e-05;10 mA
293.386;0.542297;291.6;1459;1.58081e-05;10 mA
295.186;0.544434;293.4;1468;1.60522e-05;10 mA
296.986;0.54657;295.2;1477;1.57166e-05;10 mA
298.786;0.548706;297;1486;1.61438e-05;10 mA
300.586;0.550842;298.8;1495;1.58081e-05;10 mA
302.386;0.552979;300.6;1504;1.58081e-05;10 mA
304.186;0.555115;302.4;1513;1.57776e-05;10 mA
305.986;0.557251;304.2;1522;1.57471e-05;10 mA
307.786;0.559387;306;1531;1.59302e-05;10 mA
309.586;0.561523;307.8;1540;1.61438e-05;10 mA
311.386;0.56366;309.6;1549;1.58386e-05;10 mA
313.186;0.565796;311.4;1558;1.61438e-05;10 mA
314.986;0.567932;313.2;1567;1.61133e-05;10 mA
316.786;0.570068;315;1576;1.60522e-05;10 mA
318.586;0.572205;316.8;1585;1.62964e-05;10 mA
320.386;0.574036;318.6;1594;1.57776e-05;10 mA
322.186;0.576172;320.4;1603;1.61133e-05;10 mA
323.986;0.578308;322.2;1612;1.59912e-05;10 mA
325.786;0.580444;324;1621;1.59302e-05;10 mA
327.586;0.582581;325.8;1630;1.62964e-05;10 mA
329.386;0.584717;327.6;1639;1.63269e-05;10 mA
331.186;0.586853;329.4;1648;1.60217e-05;10 mA
332.986;0.588989;331.2;1657;1.59607e-05;10 mA
334.786;0.591125;333;1666;1.61743e-05;10 mA
336.586;0.593262;334.8;1675;1.60522e-05;10 mA
338.386;0.595093;336.6;1684;1.58691e-05;10 mA
340.186;0.597229;338.4;1693;1.60828e-05;10 mA
341.986;0.599365;340.2;1702;1.60828e-05;10 mA
343.786;0.601501;342;1711;1.5686e-05;10 mA
345.586;0.603638;343.8;1720;1.59912e-05;10 mA
347.386;0.605774;345.6;1729;1.60217e-05;10 mA
349.186;0.607605;347.4;1738;1.61438e-05;10 mA
350.986;0.609741;349.2;1747;1.58997e-05;10 mA
352.786;0.611572;351;1756;1.58081e-05;10 mA
354.586;0.613708;352.8;1765;1.60217e-05;10 mA
356.386;0.61554;354.6;1774;1.59607e-05;10 mA
358.186;0.617371;356.4;1783;1.5564e-05;10 mA
359.986;0.619507;358.2;1792;1.63574e-05;10 mA
361.786;0.621643;360;1801;1.59912e-05;10 mA
363.586;0.623779;361.8;1810;1.59607e-05;10 mA
365.386;0.62561;363.6;1819;1.59607e-05;10 mA
367.186;0.627747;365.4;1828;1.60828e-05;10 mA
368.986;0.629578;367.2;1837;1.62659e-05;10 mA
370.786;0.631409;369;1846;1.60522e-05;10 mA
372.586;0.633545;370.8;1855;1.61438e-05;10 mA
374.386;0.635376;372.6;1864;1.56555e-05;10 mA
376.186;0.637512;374.4;1873;1.62354e-05;10 mA
377.986;0.639343;376.2;1882;1.62659e-05;10 mA
379.786;0.641479;378;1891;1.62659e-05;10 mA
381.586;0.643311;379.8;1900;1.58081e-05;10 mA
383.386;0.645142;381.6;1909;1.60828e-05;10 mA
385.186;0.647278;383.4;1918;1.61743e-05;10 mA
386.986;0.649109;385.2;1927;1.6449e-05;10 mA
388.786;0.651245;387;1936;1.60522e-05;10 mA
390.586;0.653076;388.8;1945;1.61743e-05;10 mA
392.386;0.655212;390.6;1954;1.61438e-05;10 mA
394.186;0.657043;392.4;1963;1.59607e-05;10 mA
395.986;0.65918;394.2;1972;1.60522e-05;10 mA
397.786;0.661011;396;1981;1.58386e-05;10 mA
399.586;0.663147;397.8;1990;1.59912e-05;10 mA
401.386;0.664978;399.6;1999;1.58997e-05;10 mA
401.586;0.665283;399.8;2000;1.58386e-05;10 mA

File: Mxene1-1Ag-DESCARGA2.txt
Time (s);WE(1).Potential (V);Corrected time (s);Index;WE(1).Current (A);Current range
1308.6;0.841675;0;1;-2.68555e-06;10 mA
1311.4;0.818481;2.8;15;-2.62451e-06;10 mA
1314.2;0.804138;5.6;29;-2.68555e-06;10 mA
1317;0.792236;8.4;43;-2.74658e-06;10 mA
1319.8;0.781555;11.2;57;-2.74658e-06;10 mA
1322.6;0.77179;14;71;-2.59399e-06;10 mA
1325.4;0.762329;16.8;85;-2.41089e-06;10 mA
1328.2;0.753479;19.6;99;-2.71606e-06;10 mA
1331;0.745239;22.4;113;-2.22778e-06;10 mA
1333.8;0.737;25.2;127;-2.80762e-06;10 mA
1336.6;0.72937;28;141;-2.83813e-06;10 mA
1339.4;0.721741;30.8;155;-2.92969e-06;10 mA
1342.2;0.714417;33.6;169;-2.86865e-06;10 mA
1345;0.707397;36.4;183;-2.86865e-06;10 mA
1347.8;0.700684;39.2;197;-3.05176e-06;10 mA
1350.6;0.694275;42;211;-2.7771e-06;10 mA
1353.4;0.687866;44.8;225;-2.92969e-06;10 mA
1356.2;0.681763;47.6;239;-3.02124e-06;10 mA
1359;0.675659;50.4;253;-2.96021e-06;10 mA
1361.8;0.669556;53.2;267;-2.74658e-06;10 mA
1364.6;0.663757;56;281;-2.99072e-06;10 mA
1367.4;0.657959;58.8;295;-2.56348e-06;10 mA
1370.2;0.652466;61.6;309;-3.17383e-06;10 mA
1373;0.646973;64.4;323;-3.20435e-06;10 mA
1375.8;0.641785;67.2;337;-3.54004e-06;10 mA
1378.6;0.636597;70;351;-2.86865e-06;10 mA
1381.4;0.631409;72.8;365;-2.96021e-06;10 mA
1384.2;0.626526;75.6;379;-2.86865e-06;10 mA
1387;0.621643;78.4;393;-3.23486e-06;10 mA
1389.8;0.617065;81.2;407;-3.05176e-06;10 mA
1392.6;0.612488;84;421;-3.2959e-06;10 mA
1395.4;0.60791;86.8;435;-3.02124e-06;10 mA
1398.2;0.603333;89.6;449;-3.23486e-06;10 mA
1401;0.59906;92.4;463;-2.80762e-06;10 mA
1403.8;0.594788;95.2;477;-3.35693e-06;10 mA
1406.6;0.590515;98;491;-3.02124e-06;10 mA
1409.4;0.586243;100.8;505;-3.20435e-06;10 mA
1412.2;0.582275;103.6;519;-2.99072e-06;10 mA
1415;0.578003;106.4;533;-3.20435e-06;10 mA
1417.8;0.57373;109.2;547;-2.80762e-06;10 mA
1420.6;0.569458;112;561;-2.99072e-06;10 mA
1423.4;0.565491;114.8;575;-3.05176e-06;10 mA
1426.2;0.561829;117.6;589;-2.92969e-06;10 mA
1429;0.557861;120.4;603;-3.08228e-06;10 mA
1431.8;0.554199;123.2;617;-3.02124e-06;10 mA
1434.6;0.550537;126;631;-3.17383e-06;10 mA
1437.4;0.546875;128.8;645;-3.23486e-06;10 mA
1440.2;0.543518;131.6;659;-3.08228e-06;10 mA
1443;0.540161;134.4;673;-3.02124e-06;10 mA
1445.8;0.536804;137.2;687;-2.74658e-06;10 mA
1448.6;0.533447;140;701;-3.11279e-06;10 mA
1451.4;0.53009;142.8;715;-3.05176e-06;10 mA
1454.2;0.527039;145.6;729;-3.44849e-06;10 mA
1457;0.523987;148.4;743;-3.35693e-06;10 mA
1459.8;0.520935;151.2;757;-3.02124e-06;10 mA
1462.6;0.517883;154;771;-3.2959e-06;10 mA
1465.4;0.514832;156.8;785;-3.05176e-06;10 mA
1468.2;0.512085;159.6;799;-3.05176e-06;10 mA
1471;0.509338;162.4;813;-3.20435e-06;10 mA
1473.8;0.506592;165.2;827;-3.05176e-06;10 mA
1476.6;0.503845;168;841;-3.14331e-06;10 mA
1479.4;0.501099;170.8;855;-2.99072e-06;10 mA
1482.2;0.498535;173.6;869;-2.62451e-06;10 mA
1485;0.495819;176.4;883;-2.99072e-06;10 mA
1487.8;0.493256;179.2;897;-2.92969e-06;10 mA
1490.6;0.490662;182;911;-3.20435e-06;10 mA
1493.4;0.487976;184.8;925;-3.2959e-06;10 mA
1496.2;0.485352;187.6;939;-3.26538e-06;10 mA
1499;0.482727;190.4;953;-3.14331e-06;10 mA
1501.8;0.480103;193.2;967;-3.17383e-06;10 mA
1504.6;0.477509;196;981;-3.26538e-06;10 mA
1507.4;0.474976;198.8;995;-2.83813e-06;10 mA
1510.2;0.472534;201.6;1009;-3.14331e-06;10 mA
1513;0.470123;204.4;1023;-3.23486e-06;10 mA
1515.8;0.467773;207.2;1037;-2.99072e-06;10 mA
1518.6;0.465485;210;1051;-3.11279e-06;10 mA
1521.4;0.463226;212.8;1065;-3.38745e-06;10 mA
1524.2;0.46109;215.6;1079;-3.05176e-06;10 mA
1527;0.459015;218.4;1093;-2.89917e-06;10 mA
1529.8;0.456879;221.2;1107;-3.2959e-06;10 mA
1532.6;0.454773;224;1121;-3.08228e-06;10 mA
1535.4;0.452728;226.8;1135;-2.83813e-06;10 mA
1538.2;0.450775;229.6;1149;-2.99072e-06;10 mA
1541;0.448822;232.4;1163;-3.11279e-06;10 mA
1543.8;0.446747;235.2;1177;-3.11279e-06;10 mA
1546.6;0.444855;238;1191;-3.23486e-06;10 mA
1549.4;0.442963;240.8;1205;-2.96021e-06;10 mA
1552.2;0.44101;243.6;1219;-3.26538e-06;10 mA
1555;0.439087;246.4;1233;-3.26538e-06;10 mA
1557.8;0.437134;249.2;1247;-3.41797e-06;10 mA
1560.6;0.435211;252;1261;-3.17383e-06;10 mA
1563.4;0.433411;254.8;1275;-3.14331e-06;10 mA
1566.2;0.431549;257.6;1289;-3.57056e-06;10 mA
1569;0.429779;260.4;1303;-2.96021e-06;10 mA
1571.8;0.428009;263.2;1317;-3.23486e-06;10 mA
1574.6;0.426239;266;1331;-3.11279e-06;10 mA
1577.4;0.424652;268.8;1345;-2.99072e-06;10 mA
1580.2;0.422913;271.6;1359;-2.99072e-06;10 mA
1583;0.421204;274.4;1373;-3.08228e-06;10 mA
1585.8;0.419586;277.2;1387;-3.2959e-06;10 mA
1588.6;0.417908;280;1401;-3.44849e-06;10 mA
1591.4;0.41629;282.8;1415;-2.92969e-06;10 mA
1594.2;0.414673;285.6;1429;-3.32642e-06;10 mA
1597;0.413055;288.4;1443;-3.02124e-06;10 mA
1599.8;0.41153;291.2;1457;-3.11279e-06;10 mA
1602.6;0.409973;294;1471;-3.32642e-06;10 mA
1605.4;0.408447;296.8;1485;-3.17383e-06;10 mA
1608.2;0.406891;299.6;1499;-3.05176e-06;10 mA
1611;0.405487;302.4;1513;-3.44849e-06;10 mA
1613.8;0.404022;305.2;1527;-3.05176e-06;10 mA
1616.6;0.402527;308;1541;-3.08228e-06;10 mA
1619.4;0.401031;310.8;1555;-2.80762e-06;10 mA
1622.2;0.399475;313.6;1569;-2.99072e-06;10 mA
1625;0.39798;316.4;1583;-3.17383e-06;10 mA
1627.8;0.396545;319.2;1597;-3.11279e-06;10 mA
1630.6;0.395142;322;1611;-2.99072e-06;10 mA
1633.4;0.393768;324.8;1625;-3.05176e-06;10 mA
1636.2;0.392395;327.6;1639;-3.17383e-06;10 mA
1639;0.391113;330.4;1653;-3.2959e-06;10 mA
1641.8;0.389801;333.2;1667;-3.26538e-06;10 mA
1644.6;0.388458;336;1681;-3.02124e-06;10 mA
1647.4;0.387146;338.8;1695;-2.96021e-06;10 mA
1650.2;0.385773;341.6;1709;-3.26538e-06;10 mA
1653;0.38446;344.4;1723;-3.17383e-06;10 mA
1655.8;0.383148;347.2;1737;-3.26538e-06;10 mA
1658.6;0.381866;350;1751;-3.41797e-06;10 mA
1661.4;0.380615;352.8;1765;-2.96021e-06;10 mA
1664.2;0.379364;355.6;1779;-2.99072e-06;10 mA
1667;0.378082;358.4;1793;-3.17383e-06;10 mA
1669.8;0.376831;361.2;1807;-3.479e-06;10 mA
1672.6;0.375549;364;1821;-3.41797e-06;10 mA
1675.4;0.374237;366.8;1835;-3.14331e-06;10 mA
1678.2;0.372986;369.6;1849;-3.26538e-06;10 mA
1681;0.371765;372.4;1863;-3.26538e-06;10 mA
1683.8;0.370483;375.2;1877;-3.44849e-06;10 mA
1686.6;0.369202;378;1891;-2.7771e-06;10 mA
1689.4;0.368011;380.8;1905;-2.92969e-06;10 mA
1692.2;0.366821;383.6;1919;-3.35693e-06;10 mA
1695;0.365662;386.4;1933;-3.479e-06;10 mA
1697.8;0.36441;389.2;1947;-3.479e-06;10 mA
1700.6;0.363159;392;1961;-3.17383e-06;10 mA
1703.4;0.361969;394.8;1975;-3.14331e-06;10 mA
1706.2;0.360809;397.6;1989;-3.02124e-06;10 mA
1709;0.359619;400.4;2003;-3.11279e-06;10 mA
1711.8;0.358459;403.2;2017;-3.54004e-06;10 mA
1714.6;0.357391;406;2031;-3.32642e-06;10 mA
1717.4;0.356293;408.8;2045;-3.05176e-06;10 mA
1720.2;0.355133;411.6;2059;-3.17383e-06;10 mA
1723;0.354034;414.4;2073;-3.11279e-06;10 mA
1725.8;0.352936;417.2;2087;-3.05176e-06;10 mA
1728.6;0.351807;420;2101;-3.11279e-06;10 mA
1731.4;0.350677;422.8;2115;-3.26538e-06;10 mA
1734.2;0.349487;425.6;2129;-3.2959e-06;10 mA
1737;0.348328;428.4;2143;-3.17383e-06;10 mA
1739.8;0.347198;431.2;2157;-3.05176e-06;10 mA
1742.6;0.346069;434;2171;-3.23486e-06;10 mA
1745.4;0.344971;436.8;2185;-3.17383e-06;10 mA
1748.2;0.343903;439.6;2199;-2.99072e-06;10 mA
1751;0.342834;442.4;2213;-3.17383e-06;10 mA
1753.8;0.341736;445.2;2227;-2.86865e-06;10 mA
1756.6;0.340576;448;2241;-3.41797e-06;10 mA
1759.4;0.339386;450.8;2255;-3.05176e-06;10 mA
1762.2;0.338257;453.6;2269;-3.02124e-06;10 mA
1765;0.337097;456.4;2283;-3.26538e-06;10 mA
1767.8;0.336029;459.2;2297;-3.57056e-06;10 mA
1770.6;0.33493;462;2311;-3.35693e-06;10 mA
1773.4;0.333862;464.8;2325;-3.38745e-06;10 mA
1776.2;0.332764;467.6;2339;-3.2959e-06;10 mA
1779;0.331696;470.4;2353;-3.2959e-06;10 mA
1781.8;0.330658;473.2;2367;-3.2959e-06;10 mA
1784.6;0.329681;476;2381;-3.26538e-06;10 mA
1787.4;0.328674;478.8;2395;-3.57056e-06;10 mA
1790.2;0.327606;481.6;2409;-2.92969e-06;10 mA
1793;0.326477;484.4;2423;-2.86865e-06;10 mA
1795.8;0.325439;487.2;2437;-3.41797e-06;10 mA
1798.6;0.324402;490;2451;-2.83813e-06;10 mA
1801.4;0.323303;492.8;2465;-3.35693e-06;10 mA
1804.2;0.322296;495.6;2479;-2.92969e-06;10 mA
1807;0.321228;498.4;2493;-3.41797e-06;10 mA
1809.8;0.32019;501.2;2507;-3.26538e-06;10 mA
1812.6;0.319092;504;2521;-3.2959e-06;10 mA
1815.4;0.318054;506.8;2535;-3.02124e-06;10 mA
1818.2;0.317047;509.6;2549;-3.23486e-06;10 mA
1821;0.31601;512.4;2563;-3.11279e-06;10 mA
1823.8;0.315002;515.2;2577;-3.17383e-06;10 mA
1826.6;0.313965;518;2591;-3.26538e-06;10 mA
1829.4;0.312897;520.8;2605;-3.41797e-06;10 mA
1832.2;0.31189;523.6;2619;-2.83813e-06;10 mA
1835;0.310913;526.4;2633;-3.17383e-06;10 mA
1837.8;0.309937;529.2;2647;-3.35693e-06;10 mA
1840.6;0.308899;532;2661;-3.20435e-06;10 mA
1843.4;0.307892;534.8;2675;-3.50952e-06;10 mA
1846.2;0.306824;537.6;2689;-3.2959e-06;10 mA
1849;0.305756;540.4;2703;-3.11279e-06;10 mA
1851.8;0.3046875;543.2;2717;-3.17383e-06;10 mA
1854.6;0.30365;546;2731;-3.23486e-06;10 mA
1857.4;0.302582;548.8;2745;-3.26538e-06;10 mA
1860.2;0.301575;551.6;2759;-3.44849e-06;10 mA
1863;0.300568;554.4;2773;-3.57056e-06;10 mA
1865.8;0.29953;557.2;2787;-3.11279e-06;10 mA
1868.6;0.298523;560;2801;-3.08228e-06;10 mA
1871.4;0.297516;562.8;2815;-2.92969e-06;10 mA
1874.2;0.296539;565.6;2829;-3.17383e-06;10 mA
1877;0.295563;568.4;2843;-3.26538e-06;10 mA
1879.8;0.294678;571.2;2857;-3.57056e-06;10 mA
1882.6;0.293732;574;2871;-3.41797e-06;10 mA
1885.4;0.292816;576.8;2885;-3.23486e-06;10 mA
1888.2;0.29184;579.6;2899;-3.23486e-06;10 mA
1891;0.290863;582.4;2913;-3.50952e-06;10 mA
1893.8;0.289886;585.2;2927;-3.02124e-06;10 mA
1896.6;0.288879;588;2941;-2.86865e-06;10 mA
1899.4;0.287903;590.8;2955;-3.17383e-06;10 mA
1902.2;0.286865;593.6;2969;-3.17383e-06;10 mA
1905;0.285797;596.4;2983;-2.96021e-06;10 mA
1907.8;0.28476;599.2;2997;-3.41797e-06;10 mA
1908.4;0.284485;599.8;3000;-3.20435e-06;10 mA