Folder: Carga-Descarga

Note: CD-Mxene3-100Ag-CARGA.txt
Time (s);WE(1).Potential (V);Corrected time (s);Index;WE(1).Current (A);Current range;Cutoffs
4.56165798848292;0.7684326171875;0;1;0.00102508544921875;10 mA;WE(1).Potential > 0,85 V , WE(1).Potential > 0,85 V , WE(1).Potential > 0,85 V , WE(1).Potential > 0,85 V
4.76165798797797;0.9124755859375;0.199999999495049;2;0.001025390625;10 mA;WE(1).Potential > 0,85 V
4.96165798747302;1.0345458984375;0.399999998990097;3;0.00102630615234375;10 mA;WE(1).Potential > 0,85 V
5.16165798696807;1.14532470703125;0.599999998485146;4;0.00102630615234375;10 mA;WE(1).Potential > 0,85 V
5.36165798646311;1.23565673828125;0.799999997980194;5;0.00102691650390625;10 mA;WE(1).Potential > 0,85 V

Note: CD-Mxene3-100Ag-DESCARGA.txt
Time (s);WE(1).Potential (V);Corrected time (s);Index;WE(1).Current (A);Current range;Cutoffs
5.561723985958;-0.02091064453125;0;1;-0.00101104736328125;10 mA;WE(1).Potential < -0,1 V , WE(1).Potential < -0,1 V , WE(1).Potential < -0,1 V , WE(1).Potential < -0,1 V
5.76172398545305;-0.21173095703125;0.199999999495049;2;-0.0010125732421875;10 mA;WE(1).Potential < -0,1 V
5.96172398494809;-0.360809326171875;0.399999998990097;3;-0.00101348876953125;10 mA;WE(1).Potential < -0,1 V
6.16172398444314;-0.490447998046875;0.599999998485146;4;-0.00101348876953125;10 mA;WE(1).Potential < -0,1 V
6.36172398393819;-0.60089111328125;0.799999997980194;5;-0.00101409912109375;10 mA;WE(1).Potential < -0,1 V

Note: CDMXene2-100Ag-1CARGA.txt
Time (s);WE(1).Potential (V);Corrected time (s);Index;WE(1).Current (A);Current range;Cutoffs
1.90520299518982;0.60638427734375;0;1;0.000946044921875;10 mA;
2.10520299468487;0.79742431640625;0.199999999495049;2;0.00094573974609375;10 mA;
2.30520299417992;0.97015380859375;0.399999998990097;3;0.00094757080078125;10 mA;WE(1).Potential > 0,85 V
2.50520299367497;1.11083984375;0.599999998485146;4;0.0009454345703125;10 mA;WE(1).Potential > 0,85 V
2.70520299317002;1.2078857421875;0.799999997980194;5;0.00094757080078125;10 mA;WE(1).Potential > 0,85 V
2.90520299266507;1.26251220703125;0.999999997475243;6;0.00094482421875;10 mA;WE(1).Potential > 0,85 V

Note: CDMXene2-100Ag-1DESCARGA.txt
Time (s);WE(1).Potential (V);Corrected time (s);Index;WE(1).Current (A);Current range;Cutoffs
3.10523199216004;0.372161865234375;0;1;-0.0009295654296875;10 mA;
3.30523199165509;0.183929443359375;0.199999999495049;2;-0.000931396484375;10 mA;
3.50523199115014;0.0282470703125;0.399999998990097;3;-0.00093475341796875;10 mA;
3.70523199064519;-0.124176025390625;0.599999998485146;4;-0.00093536376953125;10 mA;WE(1).Potential < -0,1 V
3.90523199014024;-0.2598876953125;0.799999997980194;5;-0.00093170166015625;10 mA;WE(1).Potential < -0,1 V
4.10523198963529;-0.373992919921875;0.999999997475243;6;-0.00093475341796875;10 mA;WE(1).Potential < -0,1 V
4.30523198913033;-0.452484130859375;1.19999999697029;7;-0.0009332275390625;10 mA;WE(1).Potential < -0,1 V

Note: README.md
# Carga-Descarga
AnÃ¡lises de Carga e Descarga feitas para amostras de Ti3C2

File: CD-Mxene3-1Ag-CARGA.txt
Time (s);WE(1).Potential (V);Corrected time (s);Index;WE(1).Current (A);Current range;Cutoffs
1.8372;0.0753479;0;1;1.63879e-05;10 mA;
3.8372;0.0887756;2;11;1.65405e-05;10 mA;
5.8372;0.0980225;4;21;1.64795e-05;10 mA;
7.8372;0.10614;6;31;1.68762e-05;10 mA;
9.8372;0.113525;8;41;1.67847e-05;10 mA;
11.8372;0.120667;10;51;1.66321e-05;10 mA;
13.8372;0.127625;12;61;1.6449e-05;10 mA;
15.8372;0.134338;14;71;1.63879e-05;10 mA;
17.8372;0.140839;16;81;1.65405e-05;10 mA;
19.8372;0.147034;18;91;1.6449e-05;10 mA;
21.8372;0.153076;20;101;1.63269e-05;10 mA;
23.8372;0.158966;22;111;1.67847e-05;10 mA;
25.8372;0.164764;24;121;1.69067e-05;10 mA;
27.8372;0.170441;26;131;1.66016e-05;10 mA;
29.8372;0.176025;28;141;1.651e-05;10 mA;
31.8372;0.181458;30;151;1.6571e-05;10 mA;
33.8372;0.185944;32;161;1.651e-05;10 mA;
35.8372;0.190979;34;171;1.67236e-05;10 mA;
37.8372;0.196075;36;181;1.62964e-05;10 mA;
39.8372;0.201141;38;191;1.6571e-05;10 mA;
41.8372;0.205994;40;201;1.6449e-05;10 mA;
43.8372;0.210785;42;211;1.65405e-05;10 mA;
45.8372;0.215454;44;221;1.66016e-05;10 mA;
47.8372;0.220184;46;231;1.66626e-05;10 mA;
49.8372;0.22467;48;241;1.64185e-05;10 mA;
51.8372;0.229248;50;251;1.66321e-05;10 mA;
53.8372;0.233765;52;261;1.66321e-05;10 mA;
55.8372;0.23822;54;271;1.66016e-05;10 mA;
57.8372;0.242706;56;281;1.66931e-05;10 mA;
59.8372;0.246948;58;291;1.66016e-05;10 mA;
61.8372;0.251221;60;301;1.71204e-05;10 mA;
63.8372;0.255463;62;311;1.67847e-05;10 mA;
65.8372;0.259674;64;321;1.61438e-05;10 mA;
67.8372;0.263885;66;331;1.69067e-05;10 mA;
69.8372;0.268097;68;341;1.68457e-05;10 mA;
71.8372;0.272247;70;351;1.651e-05;10 mA;
73.8372;0.276337;72;361;1.67236e-05;10 mA;
75.8372;0.280365;74;371;1.63574e-05;10 mA;
77.8372;0.284332;76;381;1.67236e-05;10 mA;
79.8372;0.288177;78;391;1.651e-05;10 mA;
81.8372;0.292114;80;401;1.66321e-05;10 mA;
83.8372;0.296082;82;411;1.67236e-05;10 mA;
85.8372;0.299896;84;421;1.66626e-05;10 mA;
87.8372;0.303711;86;431;1.62659e-05;10 mA;
89.8372;0.307434;88;441;1.66016e-05;10 mA;
91.8372;0.311157;90;451;1.68457e-05;10 mA;
93.8372;0.31488;92;461;1.66931e-05;10 mA;
95.8372;0.318512;94;471;1.66626e-05;10 mA;
97.8372;0.322113;96;481;1.66016e-05;10 mA;
99.8372;0.325714;98;491;1.66626e-05;10 mA;
101.837;0.329102;100;501;1.64185e-05;10 mA;
103.837;0.332642;102;511;1.65405e-05;10 mA;
105.837;0.336121;104;521;1.6449e-05;10 mA;
107.837;0.339478;106;531;1.69373e-05;10 mA;
109.837;0.342865;108;541;1.66931e-05;10 mA;
111.837;0.346222;110;551;1.68762e-05;10 mA;
113.837;0.34967;112;561;1.66931e-05;10 mA;
115.837;0.353027;114;571;1.66931e-05;10 mA;
117.837;0.356384;116;581;1.67847e-05;10 mA;
119.837;0.359863;118;591;1.66016e-05;10 mA;
121.837;0.363159;120;601;1.66016e-05;10 mA;
123.837;0.366455;122;611;1.66626e-05;10 mA;
125.837;0.369781;124;621;1.64185e-05;10 mA;
127.837;0.373047;126;631;1.68762e-05;10 mA;
129.837;0.376373;128;641;1.66321e-05;10 mA;
131.837;0.379761;130;651;1.68762e-05;10 mA;
133.837;0.383057;132;661;1.6571e-05;10 mA;
135.837;0.386383;134;671;1.66321e-05;10 mA;
137.837;0.38974;136;681;1.6449e-05;10 mA;
139.837;0.393097;138;691;1.62354e-05;10 mA;
141.837;0.396515;140;701;1.62964e-05;10 mA;
143.837;0.399841;142;711;1.66931e-05;10 mA;
145.837;0.403381;144;721;1.651e-05;10 mA;
147.837;0.40683;146;731;1.66321e-05;10 mA;
149.837;0.4104;148;741;1.64185e-05;10 mA;
151.837;0.413971;150;751;1.69373e-05;10 mA;
153.837;0.417572;152;761;1.67236e-05;10 mA;
155.837;0.421082;154;771;1.67847e-05;10 mA;
157.837;0.424683;156;781;1.67542e-05;10 mA;
159.837;0.428406;158;791;1.6449e-05;10 mA;
161.837;0.432037;160;801;1.70288e-05;10 mA;
163.837;0.435699;162;811;1.64795e-05;10 mA;
165.837;0.439514;164;821;1.69678e-05;10 mA;
167.837;0.443329;166;831;1.66626e-05;10 mA;
169.837;0.447174;168;841;1.66016e-05;10 mA;
171.837;0.450958;170;851;1.68457e-05;10 mA;
173.837;0.454712;172;861;1.67236e-05;10 mA;
175.837;0.458649;174;871;1.68152e-05;10 mA;
177.837;0.462616;176;881;1.67236e-05;10 mA;
179.837;0.466583;178;891;1.67847e-05;10 mA;
181.837;0.47052;180;901;1.66321e-05;10 mA;
183.837;0.474487;182;911;1.66321e-05;10 mA;
185.837;0.478546;184;921;1.66321e-05;10 mA;
187.837;0.482605;186;931;1.66016e-05;10 mA;
189.837;0.486572;188;941;1.651e-05;10 mA;
191.837;0.49057;190;951;1.65405e-05;10 mA;
193.837;0.49469;192;961;1.67542e-05;10 mA;
195.837;0.498871;194;971;1.66321e-05;10 mA;
197.837;0.50293;196;981;1.68762e-05;10 mA;
199.837;0.506897;198;991;1.63879e-05;10 mA;
201.837;0.510864;200;1001;1.67236e-05;10 mA;
203.837;0.515137;202;1011;1.67236e-05;10 mA;
205.837;0.519104;204;1021;1.65405e-05;10 mA;
207.837;0.523376;206;1031;1.65405e-05;10 mA;
209.837;0.527344;208;1041;1.64795e-05;10 mA;
211.837;0.531616;210;1051;1.66626e-05;10 mA;
213.837;0.535889;212;1061;1.70593e-05;10 mA;
215.837;0.539856;214;1071;1.69067e-05;10 mA;
217.837;0.544128;216;1081;1.67847e-05;10 mA;
219.837;0.548401;218;1091;1.69678e-05;10 mA;
221.837;0.552673;220;1101;1.71814e-05;10 mA;
223.837;0.556946;222;1111;1.68152e-05;10 mA;
225.837;0.561218;224;1121;1.66931e-05;10 mA;
227.837;0.565491;226;1131;1.67542e-05;10 mA;
229.837;0.570068;228;1141;1.68152e-05;10 mA;
231.837;0.574036;230;1151;1.66016e-05;10 mA;
233.837;0.578308;232;1161;1.68152e-05;10 mA;
235.837;0.582581;234;1171;1.65405e-05;10 mA;
237.837;0.586853;236;1181;1.67236e-05;10 mA;
239.837;0.591125;238;1191;1.66321e-05;10 mA;
241.837;0.595398;240;1201;1.68457e-05;10 mA;
243.837;0.599976;242;1211;1.71814e-05;10 mA;
245.837;0.604248;244;1221;1.68457e-05;10 mA;
247.837;0.608521;246;1231;1.68152e-05;10 mA;
249.837;0.612793;248;1241;1.66626e-05;10 mA;
251.837;0.617065;250;1251;1.66321e-05;10 mA;
253.837;0.621643;252;1261;1.70593e-05;10 mA;
255.837;0.625916;254;1271;1.68152e-05;10 mA;
257.837;0.630188;256;1281;1.66626e-05;10 mA;
259.837;0.634766;258;1291;1.69067e-05;10 mA;
261.837;0.639038;260;1301;1.67542e-05;10 mA;
263.837;0.643311;262;1311;1.68762e-05;10 mA;
265.837;0.647583;264;1321;1.65405e-05;10 mA;
267.837;0.651855;266;1331;1.68762e-05;10 mA;
269.837;0.656433;268;1341;1.70288e-05;10 mA;
271.837;0.660706;270;1351;1.67236e-05;10 mA;
273.837;0.664978;272;1361;1.69067e-05;10 mA;
275.837;0.66925;274;1371;1.66321e-05;10 mA;
277.837;0.673523;276;1381;1.70898e-05;10 mA;
279.837;0.677795;278;1391;1.70288e-05;10 mA;
281.837;0.682068;280;1401;1.69983e-05;10 mA;
283.837;0.68634;282;1411;1.66321e-05;10 mA;
285.837;0.690613;284;1421;1.70593e-05;10 mA;
287.837;0.694885;286;1431;1.69373e-05;10 mA;
289.837;0.699158;288;1441;1.68457e-05;10 mA;
291.837;0.70343;290;1451;1.66321e-05;10 mA;
293.837;0.707397;292;1461;1.66016e-05;10 mA;
295.837;0.71167;294;1471;1.71204e-05;10 mA;
297.837;0.715637;296;1481;1.69067e-05;10 mA;
299.837;0.719604;298;1491;1.66626e-05;10 mA;
301.837;0.723572;300;1501;1.64795e-05;10 mA;
303.837;0.727539;302;1511;1.68457e-05;10 mA;
305.837;0.731506;304;1521;1.73035e-05;10 mA;
307.837;0.735168;306;1531;1.67847e-05;10 mA;
309.837;0.739136;308;1541;1.70898e-05;10 mA;
311.837;0.743103;310;1551;1.69983e-05;10 mA;
313.837;0.74646;312;1561;1.70593e-05;10 mA;
315.837;0.750122;314;1571;1.67847e-05;10 mA;
317.837;0.753784;316;1581;1.71814e-05;10 mA;
319.837;0.757141;318;1591;1.71509e-05;10 mA;
321.837;0.760498;320;1601;1.70288e-05;10 mA;
323.837;0.763855;322;1611;1.71814e-05;10 mA;
325.837;0.767212;324;1621;1.72119e-05;10 mA;
327.837;0.770264;326;1631;1.70898e-05;10 mA;
329.837;0.773315;328;1641;1.70593e-05;10 mA;
331.837;0.776367;330;1651;1.70288e-05;10 mA;
333.837;0.779419;332;1661;1.65405e-05;10 mA;
335.837;0.782471;334;1671;1.70288e-05;10 mA;
337.837;0.785217;336;1681;1.67542e-05;10 mA;
339.837;0.787964;338;1691;1.69373e-05;10 mA;
341.837;0.790405;340;1701;1.66321e-05;10 mA;
343.837;0.792847;342;1711;1.70288e-05;10 mA;
345.837;0.795593;344;1721;1.67847e-05;10 mA;
347.837;0.798035;346;1731;1.68762e-05;10 mA;
349.837;0.800476;348;1741;1.66321e-05;10 mA;
351.837;0.802612;350;1751;1.66016e-05;10 mA;
353.837;0.805054;352;1761;1.67847e-05;10 mA;
355.837;0.80719;354;1771;1.73035e-05;10 mA;
357.837;0.809326;356;1781;1.72119e-05;10 mA;
359.837;0.811768;358;1791;1.69373e-05;10 mA;
361.837;0.813904;360;1801;1.70898e-05;10 mA;
363.837;0.81604;362;1811;1.68152e-05;10 mA;
365.837;0.817871;364;1821;1.68457e-05;10 mA;
367.837;0.819702;366;1831;1.67542e-05;10 mA;
369.837;0.821838;368;1841;1.71204e-05;10 mA;
371.837;0.823669;370;1851;1.68457e-05;10 mA;
373.837;0.8255;372;1861;1.69983e-05;10 mA;
375.837;0.827332;374;1871;1.68762e-05;10 mA;
377.837;0.828857;376;1881;1.69067e-05;10 mA;
379.837;0.830688;378;1891;1.70898e-05;10 mA;
381.837;0.832214;380;1901;1.66016e-05;10 mA;
383.837;0.83374;382;1911;1.70593e-05;10 mA;
385.837;0.835266;384;1921;1.67542e-05;10 mA;
387.837;0.837097;386;1931;1.68457e-05;10 mA;
389.837;0.838623;388;1941;1.67847e-05;10 mA;
391.837;0.840149;390;1951;1.6571e-05;10 mA;
393.837;0.841675;392;1961;1.71204e-05;10 mA;
395.837;0.843201;394;1971;1.69067e-05;10 mA;
397.837;0.844727;396;1981;1.66931e-05;10 mA;
399.837;0.846252;398;1991;1.66931e-05;10 mA;
401.837;0.847778;400;2001;1.71204e-05;10 mA;
403.837;0.848999;402;2011;1.72119e-05;10 mA;
405.837;0.850525;404;2021;1.67542e-05;10 mA;WE(1).Potential > 0,85 V

File: CD-Mxene3-1Ag-DESCARGA.txt
Time (s);WE(1).Potential (V);Corrected time (s);Index;WE(1).Current (A);Current range
406.037;0.83374;0;1;-4.39453e-06;10 mA
408.837;0.806274;2.8;15;-4.57764e-06;10 mA
411.637;0.79071;5.6;29;-4.30298e-06;10 mA
414.437;0.777893;8.4;43;-4.66919e-06;10 mA
417.237;0.766602;11.2;57;-4.5166e-06;10 mA
420.037;0.756226;14;71;-4.57764e-06;10 mA
422.837;0.746765;16.8;85;-4.88281e-06;10 mA
425.637;0.73761;19.6;99;-4.69971e-06;10 mA
428.437;0.729065;22.4;113;-4.73022e-06;10 mA
431.237;0.720825;25.2;127;-4.54712e-06;10 mA
434.037;0.712585;28;141;-4.66919e-06;10 mA
436.837;0.704956;30.8;155;-4.73022e-06;10 mA
439.637;0.697021;33.6;169;-4.73022e-06;10 mA
442.437;0.689697;36.4;183;-4.91333e-06;10 mA
445.237;0.682373;39.2;197;-4.91333e-06;10 mA
448.037;0.675354;42;211;-5.0354e-06;10 mA
450.837;0.66864;44.8;225;-4.85229e-06;10 mA
453.637;0.661926;47.6;239;-5.12695e-06;10 mA
456.437;0.655212;50.4;253;-4.48608e-06;10 mA
459.237;0.649109;53.2;267;-4.82178e-06;10 mA
462.037;0.6427;56;281;-4.85229e-06;10 mA
464.837;0.636597;58.8;295;-5.18799e-06;10 mA
467.637;0.630493;61.6;309;-5.27954e-06;10 mA
470.437;0.624084;64.4;323;-5.31006e-06;10 mA
473.237;0.618286;67.2;337;-4.97437e-06;10 mA
476.037;0.612793;70;351;-5.15747e-06;10 mA
478.837;0.606995;72.8;365;-4.88281e-06;10 mA
481.637;0.601807;75.6;379;-5.12695e-06;10 mA
484.437;0.596619;78.4;393;-5.24902e-06;10 mA
487.237;0.591431;81.2;407;-4.82178e-06;10 mA
490.037;0.586243;84;421;-4.66919e-06;10 mA
492.837;0.581055;86.8;435;-5.09644e-06;10 mA
495.637;0.576172;89.6;449;-5.27954e-06;10 mA
498.437;0.571289;92.4;463;-5.06592e-06;10 mA
501.237;0.566711;95.2;477;-5.18799e-06;10 mA
504.037;0.561829;98;491;-4.82178e-06;10 mA
506.837;0.557556;100.8;505;-4.91333e-06;10 mA
509.637;0.552979;103.6;519;-5.09644e-06;10 mA
512.437;0.548706;106.4;533;-4.88281e-06;10 mA
515.237;0.544434;109.2;547;-4.97437e-06;10 mA
518.037;0.540161;112;561;-5.09644e-06;10 mA
520.837;0.535889;114.8;575;-4.97437e-06;10 mA
523.637;0.531616;117.6;589;-4.91333e-06;10 mA
526.437;0.527649;120.4;603;-5.09644e-06;10 mA
529.237;0.523682;123.2;617;-5.15747e-06;10 mA
532.037;0.519714;126;631;-5.12695e-06;10 mA
534.837;0.516052;128.8;645;-5.06592e-06;10 mA
537.637;0.512085;131.6;659;-5.0354e-06;10 mA
540.437;0.508423;134.4;673;-4.76074e-06;10 mA
543.237;0.504761;137.2;687;-4.91333e-06;10 mA
546.037;0.501099;140;701;-5.12695e-06;10 mA
548.837;0.497925;142.8;715;-5.12695e-06;10 mA
551.637;0.49469;145.6;729;-5.24902e-06;10 mA
554.437;0.491425;148.4;743;-5.12695e-06;10 mA
557.237;0.488159;151.2;757;-4.97437e-06;10 mA
560.037;0.484955;154;771;-5.18799e-06;10 mA
562.837;0.481903;156.8;785;-5.09644e-06;10 mA
565.637;0.478821;159.6;799;-5.12695e-06;10 mA
568.437;0.4758;162.4;813;-5.0354e-06;10 mA
571.237;0.472656;165.2;827;-5.18799e-06;10 mA
574.037;0.469666;168;841;-5.00488e-06;10 mA
576.837;0.466736;170.8;855;-5.12695e-06;10 mA
579.637;0.463837;173.6;869;-4.82178e-06;10 mA
582.437;0.460876;176.4;883;-5.18799e-06;10 mA
585.237;0.457916;179.2;897;-5.00488e-06;10 mA
588.037;0.4552;182;911;-5.27954e-06;10 mA
590.837;0.452515;184.8;925;-5.21851e-06;10 mA
593.637;0.449829;187.6;939;-5.24902e-06;10 mA
596.437;0.447418;190.4;953;-5.00488e-06;10 mA
599.237;0.444916;193.2;967;-5.21851e-06;10 mA
602.037;0.442322;196;981;-4.85229e-06;10 mA
604.837;0.439911;198.8;995;-5.40161e-06;10 mA
607.637;0.437531;201.6;1009;-4.97437e-06;10 mA
610.437;0.435059;204.4;1023;-4.91333e-06;10 mA
613.237;0.432739;207.2;1037;-5.12695e-06;10 mA
616.037;0.43042;210;1051;-5.18799e-06;10 mA
618.837;0.428131;212.8;1065;-4.73022e-06;10 mA
621.637;0.425781;215.6;1079;-5.09644e-06;10 mA
624.437;0.423492;218.4;1093;-5.21851e-06;10 mA
627.237;0.421387;221.2;1107;-5.27954e-06;10 mA
630.037;0.41922;224;1121;-5.49316e-06;10 mA
632.837;0.416962;226.8;1135;-5.34058e-06;10 mA
635.637;0.414917;229.6;1149;-5.34058e-06;10 mA
638.437;0.412903;232.4;1163;-5.37109e-06;10 mA
641.237;0.410828;235.2;1177;-5.00488e-06;10 mA
644.037;0.408844;238;1191;-5.31006e-06;10 mA
646.837;0.40686;240.8;1205;-5.0354e-06;10 mA
649.637;0.404999;243.6;1219;-5.21851e-06;10 mA
652.437;0.403046;246.4;1233;-4.82178e-06;10 mA
655.237;0.401062;249.2;1247;-5.31006e-06;10 mA
658.037;0.399078;252;1261;-4.76074e-06;10 mA
660.837;0.397247;254.8;1275;-5.12695e-06;10 mA
663.637;0.395233;257.6;1289;-5.0354e-06;10 mA
666.437;0.393311;260.4;1303;-5.15747e-06;10 mA
669.237;0.391357;263.2;1317;-5.06592e-06;10 mA
672.037;0.389557;266;1331;-5.00488e-06;10 mA
674.837;0.387817;268.8;1345;-4.82178e-06;10 mA
677.637;0.386108;271.6;1359;-4.66919e-06;10 mA
680.437;0.38446;274.4;1373;-4.73022e-06;10 mA
683.237;0.382721;277.2;1387;-5.21851e-06;10 mA
686.037;0.38092;280;1401;-5.15747e-06;10 mA
688.837;0.379211;282.8;1415;-5.00488e-06;10 mA
691.637;0.377563;285.6;1429;-5.34058e-06;10 mA
694.437;0.375916;288.4;1443;-5.31006e-06;10 mA
697.237;0.374237;291.2;1457;-4.94385e-06;10 mA
700.037;0.372589;294;1471;-5.18799e-06;10 mA
702.837;0.371002;296.8;1485;-5.21851e-06;10 mA
705.637;0.369354;299.6;1499;-5.37109e-06;10 mA
708.437;0.367828;302.4;1513;-4.79126e-06;10 mA
711.237;0.36615;305.2;1527;-5.00488e-06;10 mA
714.037;0.364563;308;1541;-5.18799e-06;10 mA
716.837;0.363037;310.8;1555;-5.12695e-06;10 mA
719.637;0.361481;313.6;1569;-5.12695e-06;10 mA
722.437;0.359894;316.4;1583;-5.24902e-06;10 mA
725.237;0.358276;319.2;1597;-5.21851e-06;10 mA
728.037;0.356628;322;1611;-5.0354e-06;10 mA
730.837;0.355042;324.8;1625;-5.24902e-06;10 mA
733.637;0.353394;327.6;1639;-5.24902e-06;10 mA
736.437;0.351837;330.4;1653;-5.15747e-06;10 mA
739.237;0.35025;333.2;1667;-5.09644e-06;10 mA
742.037;0.348633;336;1681;-5.18799e-06;10 mA
744.837;0.347107;338.8;1695;-5.34058e-06;10 mA
747.637;0.345459;341.6;1709;-5.06592e-06;10 mA
750.437;0.343994;344.4;1723;-5.0354e-06;10 mA
753.237;0.342438;347.2;1737;-5.06592e-06;10 mA
756.037;0.340912;350;1751;-5.09644e-06;10 mA
758.837;0.339478;352.8;1765;-5.12695e-06;10 mA
761.637;0.338043;355.6;1779;-5.09644e-06;10 mA
764.437;0.336517;358.4;1793;-4.91333e-06;10 mA
767.237;0.334961;361.2;1807;-5.43213e-06;10 mA
770.037;0.333344;364;1821;-5.09644e-06;10 mA
772.837;0.331635;366.8;1835;-4.91333e-06;10 mA
775.637;0.33017;369.6;1849;-5.09644e-06;10 mA
778.437;0.328674;372.4;1863;-5.40161e-06;10 mA
781.237;0.327209;375.2;1877;-5.09644e-06;10 mA
784.037;0.325714;378;1891;-5.21851e-06;10 mA
786.837;0.324127;380.8;1905;-5.21851e-06;10 mA
789.637;0.32251;383.6;1919;-5.24902e-06;10 mA
792.437;0.320984;386.4;1933;-5.06592e-06;10 mA
795.237;0.319458;389.2;1947;-5.46265e-06;10 mA
798.037;0.317993;392;1961;-5.18799e-06;10 mA
800.837;0.316437;394.8;1975;-5.15747e-06;10 mA
803.637;0.31485;397.6;1989;-5.27954e-06;10 mA
806.437;0.313354;400.4;2003;-5.0354e-06;10 mA
809.237;0.311737;403.2;2017;-5.18799e-06;10 mA
812.037;0.310242;406;2031;-5.27954e-06;10 mA
814.837;0.308746;408.8;2045;-4.85229e-06;10 mA
817.637;0.307159;411.6;2059;-4.88281e-06;10 mA
820.437;0.305634;414.4;2073;-5.49316e-06;10 mA
823.237;0.304077;417.2;2087;-5.27954e-06;10 mA
826.037;0.302521;420;2101;-5.15747e-06;10 mA
828.837;0.300995;422.8;2115;-5.15747e-06;10 mA
831.637;0.29953;425.6;2129;-4.97437e-06;10 mA
834.437;0.298065;428.4;2143;-4.94385e-06;10 mA
837.237;0.2966;431.2;2157;-5.21851e-06;10 mA
840.037;0.295135;434;2171;-5.06592e-06;10 mA
842.837;0.293671;436.8;2185;-5.00488e-06;10 mA
845.637;0.292084;439.6;2199;-5.27954e-06;10 mA
848.437;0.290436;442.4;2213;-5.0354e-06;10 mA
851.237;0.289001;445.2;2227;-5.34058e-06;10 mA
854.037;0.287506;448;2241;-5.21851e-06;10 mA
856.837;0.285919;450.8;2255;-5.06592e-06;10 mA
859.637;0.284271;453.6;2269;-5.15747e-06;10 mA
862.437;0.282745;456.4;2283;-5.12695e-06;10 mA
865.237;0.281158;459.2;2297;-5.27954e-06;10 mA
868.037;0.279541;462;2311;-5.12695e-06;10 mA
870.837;0.277893;464.8;2325;-5.37109e-06;10 mA
873.637;0.276367;467.6;2339;-5.24902e-06;10 mA
876.437;0.274811;470.4;2353;-5.34058e-06;10 mA
879.237;0.273285;473.2;2367;-5.21851e-06;10 mA
882.037;0.271729;476;2381;-5.27954e-06;10 mA
884.837;0.270203;478.8;2395;-5.40161e-06;10 mA
887.637;0.268585;481.6;2409;-4.76074e-06;10 mA
890.437;0.267029;484.4;2423;-5.09644e-06;10 mA
893.237;0.265442;487.2;2437;-5.18799e-06;10 mA
896.037;0.263824;490;2451;-5.34058e-06;10 mA
898.837;0.262207;492.8;2465;-5.09644e-06;10 mA
901.637;0.26059;495.6;2479;-5.12695e-06;10 mA
904.437;0.258942;498.4;2493;-5.21851e-06;10 mA
907.237;0.257294;501.2;2507;-5.21851e-06;10 mA
910.037;0.255646;504;2521;-5.27954e-06;10 mA
912.837;0.254059;506.8;2535;-5.18799e-06;10 mA
915.637;0.252502;509.6;2549;-5.31006e-06;10 mA
918.437;0.250916;512.4;2563;-5.18799e-06;10 mA
921.237;0.249084;515.2;2577;-5.21851e-06;10 mA
924.037;0.247498;518;2591;-5.46265e-06;10 mA
926.837;0.24588;520.8;2605;-5.27954e-06;10 mA
929.637;0.244202;523.6;2619;-5.43213e-06;10 mA
932.437;0.242493;526.4;2633;-5.21851e-06;10 mA
935.237;0.240692;529.2;2647;-5.12695e-06;10 mA
938.037;0.239044;532;2661;-5.09644e-06;10 mA
940.837;0.237244;534.8;2675;-5.00488e-06;10 mA
943.637;0.235626;537.6;2689;-5.0354e-06;10 mA
946.437;0.233917;540.4;2703;-5.52368e-06;10 mA
949.237;0.232239;543.2;2717;-5.5542e-06;10 mA
952.037;0.230499;546;2731;-5.24902e-06;10 mA
954.837;0.228638;548.8;2745;-4.79126e-06;10 mA
957.637;0.226807;551.6;2759;-5.27954e-06;10 mA
960.437;0.22522;554.4;2773;-5.37109e-06;10 mA
963.237;0.22348;557.2;2787;-5.37109e-06;10 mA
966.037;0.221741;560;2801;-5.09644e-06;10 mA
968.837;0.219971;562.8;2815;-4.94385e-06;10 mA
971.637;0.218384;565.6;2829;-5.18799e-06;10 mA
974.437;0.216583;568.4;2843;-5.12695e-06;10 mA
977.237;0.214844;571.2;2857;-5.0354e-06;10 mA
980.037;0.213104;574;2871;-5.34058e-06;10 mA
982.837;0.211456;576.8;2885;-5.06592e-06;10 mA
985.637;0.209625;579.6;2899;-5.37109e-06;10 mA
988.437;0.207947;582.4;2913;-5.18799e-06;10 mA
991.237;0.206299;585.2;2927;-5.27954e-06;10 mA
994.037;0.204437;588;2941;-5.43213e-06;10 mA
996.837;0.202759;590.8;2955;-5.5542e-06;10 mA
999.637;0.201111;593.6;2969;-5.43213e-06;10 mA
1002.44;0.199341;596.4;2983;-5.12695e-06;10 mA
1005.24;0.197601;599.2;2997;-5.0354e-06;10 mA
1005.84;0.197174;599.8;3000;-5.15747e-06;10 mA